temperature_temperature,humidity_humidity,pressure_pressure,accelerometer_Ax,accelerometer_Ay,accelerometer_Az,gyroscope_x,gyroscope_y,gyroscope_z,quaternion_x,quaternion_y,quaternion_z,quaternion_w,bsec_bsec,co2_co2,gas_gas,led_R,led_G,led_B,timestamp
30.004047475053156,15.96895164356874,997.9879201117719,-1.6478709739439992,0.27930334843179316,4096.993428306023,-0.5678078421841054,-0.054254602864147856,0.32183519002277045,0.0,0.0,0.0,0.0,25,500,28007.238200157404,,,,2026-02-02T00:00:00.000Z
29.991721071326342,15.896240812851035,997.9892826527363,-1.4382189028983718,0.13004926237756023,4095.7234713976577,0.5125436283994018,-1.2969126132719826,-0.7813576956169462,0.0,0.0,0.0,0.0,25,500,27993.728938920412,,,,2026-02-02T00:00:01.000Z
29.998281749553232,15.98820324158313,998.0037912190447,4.099624191571852,1.626560812129186,4097.2953770762015,0.29008789963543236,0.8708175518634642,0.6913563810805253,0.0,0.0,0.0,0.0,25,500,28001.053848606083,,,,2026-02-02T00:00:02.000Z
29.995409767495058,15.94588309032145,998.0105250236544,0.001365637914965256,-1.6877077548497985,4099.046059712816,0.043900533123388444,0.7435106703345966,-0.5903616918053307,0.0,0.0,0.0,0.0,25,500,27992.835601041897,,,,2026-02-02T00:00:03.000Z
30.004353581270482,16.04955861425097,998.0103714135992,1.5642600030629183,-3.487345204793072,4095.5316932505534,0.9305333193245915,-0.6755685285912163,0.7495550374451283,0.0,0.0,0.0,0.0,25,500,27989.106112425387,,,,2026-02-02T00:00:04.000Z
30.00550303674009,15.911467243899565,997.9899709115922,-1.5817987633351063,0.31364603219638637,4095.5317260861016,-0.6608411967525808,0.7074872072053618,-0.27411147538072145,0.0,0.0,0.0,0.0,25,500,27991.036263485934,,,,2026-02-02T00:00:05.000Z
30.008910786773974,16.008983412212846,998.009893114319,-1.5597058924432776,0.5624609844372083,4099.158425631015,-0.5751864496435164,0.37490768630077576,-1.7210471256296629,0.0,0.0,0.0,0.0,25,500,28009.557251929513,,,,2026-02-02T00:00:06.000Z
30.003481988284644,15.919161116277072,997.9822373036568,2.1639696184998845,2.979198818895298,4097.534869458305,-0.011900823094228097,-1.2806121453611083,-0.982416240480937,0.0,0.0,0.0,0.0,25,500,28000.137827646307,,,,2026-02-02T00:00:07.000Z
30.00171653769969,15.940024576184118,997.9979711558299,-2.6991524231030644,-2.5407240926501724,4095.06105122813,-0.6401465050936997,-0.8539289145713574,-0.4304147086872844,0.0,0.0,0.0,0.0,25,500,28012.718816384055,,,,2026-02-02T00:00:08.000Z
30.018540238004388,16.02972916277054,998.0048702644261,-0.8304275358105431,2.30938753343344,4097.085120087172,0.5080122910545997,1.1382814448895793,1.3681890237485779,0.0,0.0,0.0,0.0,25,500,28005.204206949544,,,,2026-02-02T00:00:09.000Z
29.98475640929803,16.023471773284214,997.9792119498696,0.0680548221444641,4.734828728054243,4095.073164614375,-0.7131923043661328,0.3094161851420503,0.9011436305292249,0.0,0.0,0.0,0.0,25,500,28016.06465231481,,,,2026-02-02T00:00:10.000Z
30.01695609860129,15.958297781742164,998.0209285692408,0.22274520368010484,-0.7555297750449542,4095.0685404928595,0.2263042077451344,-0.5643029458106261,1.623861412322142,0.0,0.0,0.0,0.0,25,500,28008.18068192959,,,,2026-02-02T00:00:11.000Z
29.997101780911315,15.973058938166734,998.0132669518298,-0.3581865700323125,-2.581884438986448,4096.483924543132,-0.10017276878675659,-0.858475891172642,1.6536352160298582,0.0,0.0,0.0,0.0,25,500,28007.593408302466,,,,2026-02-02T00:00:12.000Z
30.005708915863682,15.854639355489047,998.0064700397236,0.7916395621918462,-0.8139487327467423,4092.1734395106846,0.2149259647767057,-0.5153937981154209,-0.534750804590915,0.0,0.0,0.0,0.0,25,500,27998.79512101364,,,,2026-02-02T00:00:13.000Z
29.996743403194063,16.14027643105807,997.9903497179243,1.3857115116356231,0.028009934742761467,4092.550164334974,-0.4597413950630392,-0.44447952987770456,-0.18848685975882942,0.0,0.0,0.0,0.0,25,500,28030.092065764966,,,,2026-02-02T00:00:14.000Z
29.992974583704484,16.068745639787803,997.9993189637543,1.46927509091866,1.1275757500138293,4094.875424941518,-0.33908829452682704,-0.8459630326292517,-0.4112799243305384,0.0,0.0,0.0,0.0,25,500,28001.126982198944,,,,2026-02-02T00:00:15.000Z
30.004845771927943,16.06514480508711,998.0079042016977,-1.9716076173356534,-1.1827894596760948,4093.9743377593313,0.09600926799704997,-1.7417641123833023,-0.6715106053010765,0.0,0.0,0.0,0.0,25,500,27980.26576630874,,,,2026-02-02T00:00:16.000Z
30.010421283086146,15.840496778304379,997.98877338433,-0.5683101958575943,3.110397068294684,4096.62849466519,0.20207450616131267,1.1400132864007855,-1.8414947093364584,0.0,0.0,0.0,0.0,25,500,28002.68033539614,,,,2026-02-02T00:00:17.000Z
30.004730079549674,15.940451000751072,997.9981952576876,2.3895257237538754,-2.2290646300161234,4094.183951848958,-0.004201915391156093,0.9706336726114432,-0.01474771801684241,0.0,0.0,0.0,0.0,25,500,27990.177077567627,,,,2026-02-02T00:00:18.000Z
29.994578842133173,15.966545397107637,998.0091038384982,1.7892943751477446,-3.4784103043456,4093.1753925973294,1.705362356513084,-1.2732554518068595,-1.2855655937111106,0.0,0.0,0.0,0.0,25,500,28010.170215216018,,,,2026-02-02T00:00:19.000Z
30.036113500628158,15.806893850796598,997.9850540499823,-2.745718902962128,2.2134208485746347,4098.931297537843,-0.9907369187412842,0.13631129556366767,-0.034171881534327396,0.0,0.0,0.0,0.0,25,500,28007.25816758181,,,,2026-02-02T00:00:20.000Z
30.011985736708663,16.088995009607608,998.0033242471102,0.7029598007044033,-4.549242062412399,4095.548447399027,-0.06420379495271358,-0.9022382027147666,2.1157708095629846,0.0,0.0,0.0,0.0,25,500,27998.084863500673,,,,2026-02-02T00:00:21.000Z
30.009333423042072,16.145388448854813,997.9824523037038,-3.9564504987496205,-0.40825953774543233,4096.1350564093755,-1.5736290221169846,-0.2615672232265353,-0.5093450963307086,0.0,0.0,0.0,0.0,25,500,27991.121069865567,,,,2026-02-02T00:00:22.000Z
29.996470357692576,16.20619349560036,997.9905615324442,0.09386980412073925,6.235362258416095,4093.150503627573,0.3720814786673863,-0.3447665798736565,0.19477400562806724,0.0,0.0,0.0,0.0,25,500,28001.46425726721,,,,2026-02-02T00:00:23.000Z
29.993748342117108,15.895411617248227,997.9949540739433,3.795534033491954,-0.024087105919863,4094.9112345509498,-1.115246536376814,-0.4278342157178725,0.9066483858092831,0.0,0.0,0.0,0.0,25,500,27993.58766192143,,,,2026-02-02T00:00:24.000Z
29.99720160924157,16.011732349683427,998.0051355561272,-1.8957854345379725,-2.2415353013924992,4096.22184517942,-0.27831025587657626,2.002947084076286,0.28029129196590696,0.0,0.0,0.0,0.0,25,500,28007.878039927837,,,,2026-02-02T00:00:25.000Z
30.010814065443924,16.132281826915044,997.9929921089749,-1.6686460909831642,-0.11479492757358749,4093.6980128451555,-0.3720643253313259,-0.44032568467619043,0.29248418794229586,0.0,0.0,0.0,0.0,25,500,28005.56015714258,,,,2026-02-02T00:00:26.000Z
29.99009395662924,15.974638152105305,998.0012554839133,1.528059563145719,-0.1016015772390671,4096.751396036691,0.2808911266011715,-0.8082638250669247,-0.36240243368808,0.0,0.0,0.0,0.0,25,500,28029.359665924934,,,,2026-02-02T00:00:27.000Z
29.989317961685458,15.943301208615733,997.993127718622,-3.085603030419292,0.32129988070623305,4094.7987226201626,-0.5527909175451801,-0.7625814294970479,-0.23187797506123262,0.0,0.0,0.0,0.0,25,500,27995.54885461349,,,,2026-02-02T00:00:28.000Z
30.00539547533361,15.81339823264555,997.9946938322788,-1.2655100597700781,1.3245259643192393,4095.4166125004135,-0.5953056976939823,1.0437769564017552,-0.9600105221878282,0.0,0.0,0.0,0.0,25,500,27996.965743715155,,,,2026-02-02T00:00:29.000Z
30.003191964446422,16.113262245777175,998.0125066150779,1.1928822751635053,-2.0782223367354784,4094.796586775541,1.435856464085898,-1.6521023316929349,0.8460450088894076,0.0,0.0,0.0,0.0,25,500,27998.45224326063,,,,2026-02-02T00:00:30.000Z
29.992296864621093,15.998073924392664,997.9884977182176,-1.2685716953788062,3.3750961104735873,4099.704556369018,0.28456679047452627,-0.7626229164355202,-1.7414916566140959,0.0,0.0,0.0,0.0,25,500,27998.89014465729,,,,2026-02-02T00:00:31.000Z
29.989087964215848,15.927065814103694,998.0075915397395,-0.47193997442194324,0.4902285687452357,4095.9730055505242,-0.561050852022268,1.446822840111534,0.9710883383822022,0.0,0.0,0.0,0.0,25,500,28010.270789379614,,,,2026-02-02T00:00:32.000Z
30.014378969933684,16.028385728982887,997.9999893611453,1.488371420630069,1.4535880928036076,4093.8845781420882,-0.25083367181123084,0.2439861879976468,-1.4036983847452424,0.0,0.0,0.0,0.0,25,500,27997.236543549378,,,,2026-02-02T00:00:33.000Z
30.003570044252996,16.015300537317867,997.9942444631109,0.8430921670731225,-1.256298799511285,4097.6450898242065,1.645354952270745,0.19192200503611323,0.9626072740766523,0.0,0.0,0.0,0.0,25,500,28019.723817161434,,,,2026-02-02T00:00:34.000Z
29.98636464136272,16.016825910235458,997.987824771676,0.5336367925908038,2.572764273991067,4093.5583127000577,-0.235164878251097,2.1321464601437015,-0.3538175262121811,0.0,0.0,0.0,0.0,25,500,28005.822751097257,,,,2026-02-02T00:00:35.000Z
29.987063744639176,15.978290193767332,997.988537636929,-0.6782445585400775,-0.5141048176261294,4096.41772719001,-0.6892766231523877,0.2463479529484988,-1.2318686881330803,0.0,0.0,0.0,0.0,25,500,27995.14263952012,,,,2026-02-02T00:00:36.000Z
29.996384880275496,16.162235815876336,997.9926135497524,0.7401222305379107,0.5551050269870634,4092.0806597522405,-0.6849961501263927,-0.7081861613595825,0.5792986450796365,0.0,0.0,0.0,0.0,25,500,27992.58754315019,,,,2026-02-02T00:00:37.000Z
30.007328418069978,15.986634026673757,997.9984994559278,-0.24746536019951323,-1.8662121543742185,4093.343627902203,-0.5491264809895774,-0.28207705687634865,0.9287675350757748,0.0,0.0,0.0,0.0,25,500,28010.408721934084,,,,2026-02-02T00:00:38.000Z
30.005950088021084,16.16193220763233,998.0060350963615,0.9156112198515695,-1.9938632528042537,4096.393722471738,-0.5944977224267224,-1.1354323090305687,-0.43807864810353686,0.0,0.0,0.0,0.0,25,500,28000.28520151887,,,,2026-02-02T00:00:39.000Z
30.011316785370013,16.05641169264002,997.9969976074008,-0.9938640502359565,1.3764106129057654,4097.476933159991,-1.279647848349243,1.2559370400156968,0.7206105486789331,0.0,0.0,0.0,0.0,25,500,28000.09060053757,,,,2026-02-02T00:00:40.000Z
29.98509650192539,16.035117014276175,997.9976668914812,-0.36513794875908223,-0.8872136604147719,4096.34273656238,-1.124200096946978,0.5745617175367154,-2.2850844946693503,0.0,0.0,0.0,0.0,25,500,27994.01519773576,,,,2026-02-02T00:00:41.000Z
30.002238466897797,15.988672524672184,997.9991600977668,-1.9799155851040278,-1.7076461750087542,4095.7687034352234,-0.82932037436137,1.124414149970889,-1.3205962897466004,0.0,0.0,0.0,0.0,25,500,27999.385543190794,,,,2026-02-02T00:00:42.000Z
30.014259103323212,16.097395669354594,998.0047677769144,-0.0700152200124718,-1.2863666840540608,4095.3977926088214,0.5915710184530977,1.2129839285493706,1.292408930468729,0.0,0.0,0.0,0.0,25,500,27993.61045149197,,,,2026-02-02T00:00:43.000Z
30.01332801730476,16.0112991767578,998.0064480281919,-1.6220017272576897,1.3979061434348423,4093.042956019265,-0.3812372872728735,-0.4142107809275326,-0.22366927419791616,0.0,0.0,0.0,0.0,25,500,28013.61711456226,,,,2026-02-02T00:00:44.000Z
30.00358909981413,15.906786878488647,997.9861303452443,-2.2280929003239867,-1.2580757224072219,4094.5603115832105,-0.20716168909404023,-0.9447528520088898,-1.8622133264488476,0.0,0.0,0.0,0.0,25,500,28007.170601522554,,,,2026-02-02T00:00:45.000Z
30.023480185086537,15.903450780900197,997.9971792529026,0.5173222957107763,-0.23530986320432815,4095.0787224580804,1.270088025254897,-0.05171311130804584,-0.6988661804419937,0.0,0.0,0.0,0.0,25,500,27998.252311606993,,,,2026-02-02T00:00:46.000Z
30.00609285116416,16.042248462193427,998.0122740401735,0.42547955171532065,0.030055500574194018,4098.114244452438,1.2950071499384181,-0.8727610707885383,-0.9234004725250807,0.0,0.0,0.0,0.0,25,500,27998.105319169474,,,,2026-02-02T00:00:47.000Z
30.010427466328412,15.90926211148335,997.9868388004628,1.565747469897145,-3.834697772020598,4096.687236579137,-0.28212494313773495,0.16495687540902468,-0.16596173147292473,0.0,0.0,0.0,0.0,25,500,28000.921741682392,,,,2026-02-02T00:00:48.000Z
30.000444479187756,15.99377689430275,998.0007431289044,-0.8622511391501981,-2.942252810747036,4092.4739196892747,-0.630863510683409,1.1320968808346892,-0.37075098380764737,0.0,0.0,0.0,0.0,25,500,27999.94459761128,,,,2026-02-02T00:00:49.000Z
29.99219024707156,16.105718453855108,997.998291559962,0.8161056936735114,0.672555778495125,4096.64816793879,-0.8644303136735378,-0.1681396460491672,0.1789317289381608,0.0,0.0,0.0,0.0,25,500,27990.430638206908,,,,2026-02-02T00:00:50.000Z
29.991247907992214,16.030397017789433,997.9943332441006,1.1015951445473264,-1.4740587223053943,4095.2298354391673,0.6927757697082377,0.14999508990773913,-0.0694660516125747,0.0,0.0,0.0,0.0,25,500,27980.99225871615,,,,2026-02-02T00:00:51.000Z
30.001816152147946,15.927786512967126,998.0159078265104,0.8895476156631895,2.113449822560837,4094.646155999388,-0.20470723352228773,-0.09384561622336653,1.3597392550370186,0.0,0.0,0.0,0.0,25,500,27992.02299333559,,,,2026-02-02T00:00:52.000Z
29.9978849799315,16.140998751161614,998.0003683580887,-1.6513073656042843,1.9336142085010888,4097.223352577682,-0.3864948903227902,0.8027275724376978,0.4245485997196691,0.0,0.0,0.0,0.0,25,500,27998.71482509335,,,,2026-02-02T00:00:53.000Z
29.982314143300865,16.05478752369947,998.0151114507195,0.2987269645423778,1.4383373327108744,4098.061999044992,-0.8136645751375527,-0.66778239428829,0.45767161119358607,0.0,0.0,0.0,0.0,25,500,27992.621668022824,,,,2026-02-02T00:00:54.000Z
29.989742064150743,16.10177929872041,998.0000562720525,0.7282805921093227,3.639543574625195,4097.862560238233,-0.7696664090113885,-2.196446261643099,1.1651571238945218,0.0,0.0,0.0,0.0,25,500,28008.193380303957,,,,2026-02-02T00:00:55.000Z
29.996815964259458,15.77324416567907,998.0046025588932,0.014356933815883884,-0.16617865548636623,4094.3215649535546,0.32005819149324455,0.4708688593753808,-0.38876875042958176,0.0,0.0,0.0,0.0,25,500,27997.70846864099,,,,2026-02-02T00:00:56.000Z
30.007272793759373,16.033085287826275,997.9942277849108,-4.172955316742169,1.2977638518076782,4095.3815752482974,-1.315438265887262,0.9878344213079936,-1.2618774433584852,0.0,0.0,0.0,0.0,25,500,28018.735735750288,,,,2026-02-02T00:00:57.000Z
29.99983926113838,16.08421578363799,997.994339063247,0.32097924794696014,-1.1688019531920621,4096.662526862807,0.9948686937879384,0.4463742447585357,1.2069703246322492,0.0,0.0,0.0,0.0,25,500,27994.38505741771,,,,2026-02-02T00:00:58.000Z
29.999279357894995,16.1700288642298,998.0040934753025,4.425062078794484,4.9047398257374475,4097.951090254244,-0.5338446438149185,-0.6402304954680139,0.13584174810811248,0.0,0.0,0.0,0.0,25,500,28001.407167987014,,,,2026-02-02T00:00:59.000Z
29.990130873729967,15.853618141584896,998.0042769745763,-0.7200785375139654,3.967267304872039,4095.0416515243096,-0.14963594425179252,-1.135012098186069,0.13935120789892844,0.0,0.0,0.0,0.0,25,500,27997.111382438303,,,,2026-02-02T00:01:00.000Z
30.000231660800623,16.120611458919452,998.0059798706659,-1.4561541957106423,0.02376086903558388,4095.6286820466726,-1.3369779581405543,0.4944975317803214,-0.6333299215302364,0.0,0.0,0.0,0.0,25,500,28004.397780577347,,,,2026-02-02T00:01:01.000Z
30.01319101027446,16.164438028570125,998.0037667828695,0.7466971194227964,0.7731724598103844,4093.7873300519877,-0.012365938242364536,0.14147895293467364,-0.6168553331035774,0.0,0.0,0.0,0.0,25,500,28010.65751128997,,,,2026-02-02T00:01:02.000Z
30.001555751127587,15.798271102272102,997.9866357907299,0.6247564209331434,2.7185951987296115,4093.607586751839,-0.32832094269055984,-0.12579262765832977,0.8467223387708436,0.0,0.0,0.0,0.0,25,500,28006.082809589272,,,,2026-02-02T00:01:03.000Z
29.98492686418518,16.047859110986973,997.9919363132328,2.385470330832829,-0.2942790096282139,4097.625051644788,-0.05008059885646664,1.8224633429937909,0.9846557981376103,0.0,0.0,0.0,0.0,25,500,27979.69203730534,,,,2026-02-02T00:01:04.000Z
29.987484772056956,16.061762081434072,998.0084994288615,-2.5157363118177756,-1.3132481415994095,4098.712480057142,1.4717088983618904,-0.9468000941813317,0.7838234057466584,0.0,0.0,0.0,0.0,25,500,28004.998616104727,,,,2026-02-02T00:01:05.000Z
30.005887888772232,15.96729923373481,997.9804153463459,1.4627605051499848,1.747979502013765,4095.855979756839,0.17769804579023982,1.7750370211274655,0.792961605445475,0.0,0.0,0.0,0.0,25,500,27989.891218577188,,,,2026-02-02T00:01:06.000Z
29.997756845247775,15.950990553993371,998.0029260724151,1.180844122502927,0.15687849216734018,4098.007065795784,-0.7946591841458039,0.03178390487063994,0.5690295372597589,0.0,0.0,0.0,0.0,25,500,27996.90230821584,,,,2026-02-02T00:01:07.000Z
29.999254197698964,16.066785391328782,997.9988811990094,-0.2842930738810922,0.3659888992905208,4096.723272050095,-0.7113199105465682,-1.8355704768708747,0.13152273007815657,0.0,0.0,0.0,0.0,25,500,28006.893291868375,,,,2026-02-02T00:01:08.000Z
29.993872658249852,15.938501824658937,998.0084958186748,0.67737463584338,-1.668542686135931,4094.70976049079,0.5951311859137686,-0.17920265431914087,-0.17537968432098058,0.0,0.0,0.0,0.0,25,500,27988.80239091585,,,,2026-02-02T00:01:09.000Z
30.005034122121998,15.97827506715819,998.0041662118607,2.0589149631967145,-3.4353442967267926,4096.722791211017,1.298693290993424,0.959496076599441,1.2103238499415532,0.0,0.0,0.0,0.0,25,500,28011.55948007485,,,,2026-02-02T00:01:10.000Z
29.996990822867545,16.081243490082393,997.993360197203,1.7446307600569007,0.47228481975820213,4099.076073132932,0.28191802075105005,-0.3650550328049707,-0.3737208704904336,0.0,0.0,0.0,0.0,25,500,27996.466141004486,,,,2026-02-02T00:01:11.000Z
29.998133867782713,16.175404305032686,997.992906499617,-2.2860386241474573,1.8099240829883996,4095.92834792178,0.6887127445547695,-1.474778541238395,0.36997921388074695,0.0,0.0,0.0,0.0,25,500,28021.70937372918,,,,2026-02-02T00:01:12.000Z
29.99148776608337,16.0537984272542,997.99477216527,1.640316373510969,-0.4516134981520837,4099.129287311628,0.6097377233367051,-0.16451453179616995,-0.8040129979542465,0.0,0.0,0.0,0.0,25,500,28000.68677825794,,,,2026-02-02T00:01:13.000Z
30.00921691298143,16.01334844954145,998.0058006304737,-0.12937721006503697,2.8728590391177335,4090.7605097918204,1.419064413357521,-0.8571723738917058,-0.6592990368504504,0.0,0.0,0.0,0.0,25,500,28017.05342742652,,,,2026-02-02T00:01:14.000Z
29.997788672083836,15.948360251533924,997.9769778632044,0.14574819603103079,-1.407832650831089,4097.643805008751,-1.9495901727260327,0.4918144010879626,-0.2361545678572265,0.0,0.0,0.0,0.0,25,500,28011.976792245336,,,,2026-02-02T00:01:15.000Z
30.0060788033312,15.898939995934894,998.0015737944435,0.146393982003389,-2.10940890993184,4096.174094136476,0.6672189393045282,0.7733998160676113,-0.8039383767271636,0.0,0.0,0.0,0.0,25,500,27993.888949179454,,,,2026-02-02T00:01:16.000Z
29.98806408435966,16.110957824150095,997.9911696541277,-0.30048597759651996,-0.1344606143922625,4095.401985299068,0.9837360439035638,-1.0562704077481062,0.7978518254783004,0.0,0.0,0.0,0.0,25,500,27986.983092723665,,,,2026-02-02T00:01:17.000Z
30.017338831383785,15.984655014887311,998.001908352978,2.38341499421413,-0.1651851507025809,4096.183521553071,-1.3387237061355735,-0.7058040551156496,-1.3480342515450294,0.0,0.0,0.0,0.0,25,500,28001.136273612374,,,,2026-02-02T00:01:18.000Z
30.012773740385132,16.115070327466672,998.003444977865,-0.16743591969842403,1.5399374626704452,4092.0248621707983,-0.885668184006416,0.7566424651069377,0.09922962338107293,0.0,0.0,0.0,0.0,25,500,27994.17356881478,,,,2026-02-02T00:01:19.000Z
29.98090202330341,15.967044812200454,997.9833767341707,-2.2390922567663374,-1.5499256481279695,4095.560656224325,-0.8507827486281534,-0.8588442782989592,0.1325080968421812,0.0,0.0,0.0,0.0,25,500,28015.79718780087,,,,2026-02-02T00:01:20.000Z
29.99198062524936,15.935071133863898,997.99773133573,-0.7870597119394577,2.736188473629796,4096.714225143023,-0.7287901963773834,-1.082158135827995,-1.8107995783196809,0.0,0.0,0.0,0.0,25,500,27997.531408283274,,,,2026-02-02T00:01:21.000Z
30.0047763439101,16.042079888882753,998.001555703568,0.3573894336209512,3.9338339250165073,4098.955788089483,-0.48171705093552597,-1.1786911317962547,-0.4410238205236087,0.0,0.0,0.0,0.0,25,500,27996.995960414813,,,,2026-02-02T00:01:22.000Z
29.98680271343851,15.99234640607316,998.0008795009528,2.458429568594101,-0.07828805393668375,4094.9634595634525,0.24260281305494147,0.3520386129581204,0.2556995380481427,0.0,0.0,0.0,0.0,25,500,27986.04101539263,,,,2026-02-02T00:01:23.000Z
29.998684059178366,15.879447139538927,997.9987779904689,1.2061893698976671,2.499420840368637,4094.3830127942138,0.8656746511673697,0.3091577195174642,0.42872799329406813,0.0,0.0,0.0,0.0,25,500,28004.1921701308,,,,2026-02-02T00:01:24.000Z
30.004266317859766,16.181736832978185,997.9877911248019,-1.7010705574940879,-2.11299414125052,4094.996485912831,1.0813169577685364,-0.6840460303790417,-0.20430720860016585,0.0,0.0,0.0,0.0,25,500,27988.25777718053,,,,2026-02-02T00:01:25.000Z
29.998152740880204,15.937301622622837,997.9893137196935,4.970379833357783,2.150443082363832,4097.830804235404,-0.8378230611677818,0.005085396128234085,0.6768882044807154,0.0,0.0,0.0,0.0,25,500,28004.424369128807,,,,2026-02-02T00:01:26.000Z
30.00538838703537,16.09275915211742,997.9862195267725,0.5295506219559593,2.094552817118925,4096.657502219319,-0.8447029987029827,1.5271323841551305,-0.10931625723604081,0.0,0.0,0.0,0.0,25,500,28005.80091726498,,,,2026-02-02T00:01:27.000Z
29.99306670095398,16.08418566293965,998.0055404557083,2.5507814759980296,1.7268745603797573,4094.940479592466,1.315821840016223,-0.9740601569182217,0.013652912075056728,0.0,0.0,0.0,0.0,25,500,27992.503248880257,,,,2026-02-02T00:01:28.000Z
29.977558184578317,15.874053723508565,997.9988442915819,-0.30342886715445827,-0.031126177740587957,4097.026534866227,0.6467439354186445,-1.9517426090104495,0.2516538689865537,0.0,0.0,0.0,0.0,25,500,28009.565799310178,,,,2026-02-02T00:01:29.000Z
30.00982115312165,15.899761235538351,997.9994824676071,1.0667184894108988,-5.908497882484062,4096.194155098696,0.08286484186899613,0.45507557572037044,0.9269996287341687,0.0,0.0,0.0,0.0,25,500,27997.251245607087,,,,2026-02-02T00:01:30.000Z
30.009758146536026,15.969849066029987,997.9829450655616,1.6789370090368094,-1.2834542873042587,4097.937289981066,0.4733366755549671,-0.11040116390158848,-0.6757180024155319,0.0,0.0,0.0,0.0,25,500,27985.287563040958,,,,2026-02-02T00:01:31.000Z
30.025036366422885,15.913435345542169,997.9996639720274,2.436389423508512,-1.251832035369204,4094.5958938122453,-0.029803781851440635,-0.7100250868151013,-0.4868218725182975,0.0,0.0,0.0,0.0,25,500,28015.452873403137,,,,2026-02-02T00:01:32.000Z
29.977928134820658,16.17264563718787,998.0063363707199,2.11473661075645,-1.9565098761209547,4095.3446757068045,0.5245846830476146,0.6520802373549079,-0.6688964917292147,0.0,0.0,0.0,0.0,25,500,27990.765294259258,,,,2026-02-02T00:01:33.000Z
30.007508321093468,15.97998243632015,997.9815816042543,1.7443940001459557,0.24448600909413243,4095.215783693736,-0.3360666965057405,0.83922514466879,-0.33219771614193333,0.0,0.0,0.0,0.0,25,500,28005.070705412665,,,,2026-02-02T00:01:34.000Z
29.980313178619166,16.088974904281407,997.9946459374125,-0.6301734623882173,-0.8379268910424693,4093.0729701037358,0.2688049344392308,-2.2082780198800926,1.4262342580797647,0.0,0.0,0.0,0.0,25,500,28004.25794474047,,,,2026-02-02T00:01:35.000Z
30.017564932816754,16.05136373890002,997.9842965086846,-1.1434920839121228,-1.6492240195300438,4096.59224055413,-1.5105460503694963,-0.6525979093314883,0.5727253193298222,0.0,0.0,0.0,0.0,25,500,28003.891846739243,,,,2026-02-02T00:01:36.000Z
30.00487866833696,16.026402244899636,997.9957971792527,0.6652150206483951,-2.1176002964956395,4096.52211054436,-0.687784294825431,2.317516231196855,-1.131089745168842,0.0,0.0,0.0,0.0,25,500,28003.718619159303,,,,2026-02-02T00:01:37.000Z
29.990480711523237,16.00403212107396,997.9909900810243,1.8662561446821386,-1.4310259709704574,4096.010226913285,-0.6770111767903435,0.5834049157981909,-0.6004469655886746,0.0,0.0,0.0,0.0,25,500,27990.2981236344,,,,2026-02-02T00:01:38.000Z
30.007802224746015,16.12371307077887,998.0038090883364,-0.4454414015532141,2.2429984236998566,4095.53082573325,-0.3743900332069141,0.6761036382971497,0.37276722427640213,0.0,0.0,0.0,0.0,25,500,28016.913496015026,,,,2026-02-02T00:01:39.000Z
29.99446954992283,15.917490702666498,998.0016923956342,2.130343931428773,-1.3220501092549883,4093.169258515899,-0.9265132547797481,1.1728942786314784,-0.9065077809327704,0.0,0.0,0.0,0.0,25,500,28009.562491502005,,,,2026-02-02T00:01:40.000Z
30.003004160995513,16.17263353104566,998.0129150440563,2.9052334909723587,-1.0298774128665449,4095.1587093544695,-0.5335436258230818,0.017068825199726117,-0.7253400408147569,0.0,0.0,0.0,0.0,25,500,28004.750567312505,,,,2026-02-02T00:01:41.000Z
30.002059607162092,15.871277681949591,997.999459221507,-1.8326418381468395,-0.9133952300464927,4095.3145709669466,-1.5144140623981206,0.79668416009162,1.3449596661741487,0.0,0.0,0.0,0.0,25,500,27986.670237644845,,,,2026-02-02T00:01:42.000Z
30.017441681361472,16.078151172562244,998.003384878021,-1.6738414075925598,0.6779870276188393,4094.395445461557,0.5487004763949003,0.7180620438372025,-0.6133756284731867,0.0,0.0,0.0,0.0,25,500,27990.216321243446,,,,2026-02-02T00:01:43.000Z
30.018149259100866,15.859483614006022,997.9944229251835,-0.2807501178106729,0.9124989770570656,4095.677428576668,-0.08251351891139448,0.5390414967527589,0.9546668160293867,0.0,0.0,0.0,0.0,25,500,28006.574566266892,,,,2026-02-02T00:01:44.000Z
29.994027346267266,15.968429444777303,997.9889693534877,0.6152253363783928,-6.089313078486324,4096.808101713629,-1.7052076077760168,-0.3220119706174046,1.2553231895309385,0.0,0.0,0.0,0.0,25,500,27979.96315888303,,,,2026-02-02T00:01:45.000Z
30.01058105617996,16.009330993806095,998.0083476243469,-1.049134027534102,2.0432704276552163,4099.772371802421,-0.8348299105466731,0.17205892236625886,-0.7334620911689643,0.0,0.0,0.0,0.0,25,500,28003.387038599405,,,,2026-02-02T00:01:46.000Z
30.003548401555705,15.95133046511705,998.0124325505354,2.704405357734289,2.872736068487508,4096.349155625664,0.3366014275621669,-0.5883615643067782,-0.8899625565571414,0.0,0.0,0.0,0.0,25,500,27986.688232026143,,,,2026-02-02T00:01:47.000Z
29.985873179329932,15.98183304303831,998.0070565569924,0.8481337230369024,-2.100373074723339,4096.515100781446,-0.5430219463857897,0.012814304566494933,-0.2761320864811651,0.0,0.0,0.0,0.0,25,500,27991.319682224905,,,,2026-02-02T00:01:48.000Z
29.993037716196277,15.86130295520692,998.0013122812313,0.07889409648147898,-1.9445964894696695,4095.851108168468,-0.6969414601380967,-1.168490892099267,-1.088627720673625,0.0,0.0,0.0,0.0,25,500,27985.889323923326,,,,2026-02-02T00:01:49.000Z
30.023361460995996,15.901254953127644,997.9902590644551,-2.871819047737055,-0.9005067755565429,4092.162457569402,-0.07459267700807634,-0.7906239912729525,0.1210338785027424,0.0,0.0,0.0,0.0,25,500,28002.461064157822,,,,2026-02-02T00:01:50.000Z
30.003578544011045,16.049826470719587,998.0114162817342,-2.6316316328550142,-1.5120080389132096,4095.9469722491017,0.3435975351782162,-0.28231204192492954,-0.20565191185338647,0.0,0.0,0.0,0.0,25,500,28011.163614518344,,,,2026-02-02T00:01:51.000Z
30.009997795795176,16.002967182497745,998.0057950931564,0.5620185005636126,0.44785374789321275,4096.120460419882,-1.4363524570391606,-0.9437054314300761,0.36058001588630156,0.0,0.0,0.0,0.0,25,500,28003.480175238128,,,,2026-02-02T00:01:52.000Z
29.99787955687633,15.930947197417849,998.0202487860932,-4.265191252309672,-3.8930505727177285,4100.92648422497,0.5501284812178794,-0.5050172707451764,1.3969434562328211,0.0,0.0,0.0,0.0,25,500,28004.57833048922,,,,2026-02-02T00:01:53.000Z
29.994600580852808,16.132427776312966,997.9884557604976,2.0252748192881436,-2.2358552160734795,4095.615278070438,-0.8002932816073767,-0.16392597675551596,0.8174849807703192,0.0,0.0,0.0,0.0,25,500,28001.67958896155,,,,2026-02-02T00:01:54.000Z
30.000272645076343,15.878006910000979,998.0086256650125,-0.3163076887446406,3.078394400349815,4096.603094684668,-0.01792796824979873,0.4022623446643774,0.48923977541235625,0.0,0.0,0.0,0.0,25,500,28006.826935108707,,,,2026-02-02T00:01:55.000Z
29.99733895944754,15.963840953413595,998.0054910650488,6.4861859391894665,-1.8564399346960356,4095.9305764605897,-0.035420140691509526,0.9492573018529092,-1.966048412967918,0.0,0.0,0.0,0.0,25,500,28004.6708561425,,,,2026-02-02T00:01:56.000Z
29.985067470689685,15.949434372182154,997.9965797279975,4.615832501232221,2.4868565562058498,4093.662643924761,-0.5270661182397741,-0.46378437137810796,0.44337598210237517,0.0,0.0,0.0,0.0,25,500,27972.849018060027,,,,2026-02-02T00:01:57.000Z
29.98996674542546,16.061503762776105,998.013638348802,-0.3628981384950335,0.7106763911802737,4098.28564562903,-1.0236597461307144,1.3351046172686238,1.7226276607045492,0.0,0.0,0.0,0.0,25,500,28009.063067376617,,,,2026-02-02T00:01:58.000Z
30.00707884514412,16.00481636911372,998.0040234514843,-0.21267400506262993,-3.618535429176516,4097.503866065374,-0.28568654809226357,0.9386110786254933,-3.0105225163135167,0.0,0.0,0.0,0.0,25,500,28008.01151961961,,,,2026-02-02T00:01:59.000Z
29.996193093108975,15.98918347534654,997.9906310697154,1.9911630280040595,1.2706583904324125,4097.582063894086,1.625330309075195,0.5040938319439419,0.6893825429756253,0.0,0.0,0.0,0.0,25,500,27996.376871693417,,,,2026-02-02T00:02:00.000Z
30.00025704882028,15.815578329613276,997.9988166098373,3.4063452198360755,-0.23533460438570672,4094.1812250904104,-1.361675030463631,0.15364912929661892,-0.15935857475646428,0.0,0.0,0.0,0.0,25,500,27980.257932722674,,,,2026-02-02T00:02:01.000Z
30.002349230504972,16.08650344806321,997.990511411929,-3.2760581148720336,-0.910934112499481,4098.805588621873,1.6923130191048756,0.31912084186854134,-0.8497950030229446,0.0,0.0,0.0,0.0,25,500,28002.424740256345,,,,2026-02-02T00:02:02.000Z
30.003130500488187,15.978217418516826,997.9953148428461,-3.572750930709373,0.48991418634400785,4093.1962978744154,-0.2597211710765324,1.187051150666382,0.8011285839119535,0.0,0.0,0.0,0.0,25,500,28003.266608041366,,,,2026-02-02T00:02:03.000Z
30.011465790613155,16.01156610176104,998.0070382615354,-1.2440696111087628,0.9492669711335843,4097.1737141876,0.03537141708863912,1.2235796597592736,1.7097059006073305,0.0,0.0,0.0,0.0,25,500,27995.595165174393,,,,2026-02-02T00:02:04.000Z
29.989013041849315,15.925143677990611,998.0098927404523,1.1654751663477287,1.4151836439492391,4100.38091125162,-1.0867108113847272,1.3349467283836431,0.7752307288377537,0.0,0.0,0.0,0.0,25,500,28001.866997243465,,,,2026-02-02T00:02:05.000Z
30.005702527235435,15.909417123718292,998.0022121233379,0.9937471810151942,2.3565056950960046,4094.0189273497385,-0.7712694166774808,0.04132683187700316,-0.3711919512615264,0.0,0.0,0.0,0.0,25,500,28010.718402579703,,,,2026-02-02T00:02:06.000Z
30.007550277935195,16.14992877584757,997.9924992512341,2.1395429099677004,0.8162718255567127,4094.8674045407943,-0.5029096500380191,0.554967164998613,-0.9434698244081563,0.0,0.0,0.0,0.0,25,500,28023.975217182953,,,,2026-02-02T00:02:07.000Z
30.009858517790015,15.822676142173759,998.003816084204,-2.3993950567306164,-2.7512681775727237,4096.199302730175,-1.0456949708779122,1.3435465066220513,0.14462763378954377,0.0,0.0,0.0,0.0,25,500,28001.46903672916,,,,2026-02-02T00:02:08.000Z
29.98587082400585,15.894580097221723,998.0072339963796,-4.632287725937753,-0.9472909153023821,4094.9930486917674,-0.20891795737087174,-0.6237160349163927,0.8731692923815881,0.0,0.0,0.0,0.0,25,500,28003.33913681353,,,,2026-02-02T00:02:09.000Z
30.00254819218347,16.14804921526691,997.9802788825476,1.7160283906042908,5.886096670537243,4092.8986731378677,-0.4070158918067711,-0.31841685371830375,-0.3870530262337276,0.0,0.0,0.0,0.0,25,500,27991.762111248147,,,,2026-02-02T00:02:10.000Z
30.017160759463984,16.064074638099864,998.0011647877503,-1.6563925459304691,1.4489821207634552,4096.137125949612,1.8507811424357334,0.016036663013478343,-0.2903829916507967,0.0,0.0,0.0,0.0,25,500,27994.986079540235,,,,2026-02-02T00:02:11.000Z
29.999008794808432,15.967453746825758,997.998098102016,-4.036975728777276,4.738574601622994,4093.8753925725478,-1.165974185680461,0.8995987379794065,2.8220002498383985,0.0,0.0,0.0,0.0,25,500,27998.639573696284,,,,2026-02-02T00:02:12.000Z
30.004834947019642,16.124659631428866,998.0095371125541,0.29012749191876325,2.7908681643983706,4096.94718486127,0.10269051674858726,0.9151721507186228,1.078651945959726,0.0,0.0,0.0,0.0,25,500,28011.777180353907,,,,2026-02-02T00:02:13.000Z
30.007803955945853,16.0446860116396,998.0038568916486,1.5863513764373547,0.48360414311149713,4094.1611515315326,0.24784628190182476,-0.2308641111979353,1.1501286783936322,0.0,0.0,0.0,0.0,25,500,28008.18957756028,,,,2026-02-02T00:02:14.000Z
29.989745301556017,16.023266009197442,998.0048435170147,-0.24411426424255453,0.6028141395622348,4099.099868810035,-1.0703205486518375,-1.50860945437971,-1.460285906058812,0.0,0.0,0.0,0.0,25,500,28019.29353344008,,,,2026-02-02T00:02:15.000Z
30.01833824729,16.02255620171024,997.9951808903362,-0.9156967723649785,-0.07316007975369158,4094.4334934153276,0.6868274954528385,0.24618394429596727,-0.7071886792934604,0.0,0.0,0.0,0.0,25,500,27985.0977382434,,,,2026-02-02T00:02:16.000Z
30.00499500796969,16.04652382172145,998.0000165171713,-0.3187244642918131,-3.475609231692999,4095.3558769675888,-0.3983270128816281,-0.9183161373284012,0.07468163945423903,0.0,0.0,0.0,0.0,25,500,27986.76265029351,,,,2026-02-02T00:02:17.000Z
30.005195028141934,16.050569250129744,998.0094368496981,-0.7411655248015657,0.03609450493644856,4097.6270344347395,-2.4923896515830672,-1.4899362046402225,-1.0011375578851496,0.0,0.0,0.0,0.0,25,500,28011.02082935236,,,,2026-02-02T00:02:18.000Z
29.983379726219894,16.219597305289597,997.9993512026703,-2.6960942238803343,2.4213491050843943,4093.538271367132,0.659849612104565,-1.2638715607337165,1.6003972988892943,0.0,0.0,0.0,0.0,25,500,28014.488603763144,,,,2026-02-02T00:02:19.000Z
30.007945447982134,15.980510718832733,998.0017466955574,-1.4293613539808636,-1.1992799896424073,4096.454919869208,-1.1169408841023638,0.32638100784556046,1.4103123065906453,0.0,0.0,0.0,0.0,25,500,28000.33128121671,,,,2026-02-02T00:02:20.000Z
30.00506410341379,15.98359528118518,997.9846404270156,1.042559810027629,0.8239059981236191,4098.6142855085645,-1.047774946139099,1.361037360932807,-0.5335453373840537,0.0,0.0,0.0,0.0,25,500,27955.34396136471,,,,2026-02-02T00:02:21.000Z
30.01624191327722,15.876310681242929,997.9993145996367,0.6433570827530002,1.7031820917863947,4092.7850335308776,0.6879020828923982,0.03889451623624384,1.7839186066074848,0.0,0.0,0.0,0.0,25,500,27992.56470838101,,,,2026-02-02T00:02:22.000Z
29.996887347856955,15.994810261317898,997.979880000319,0.3361196119336405,-1.8193608786249509,4096.369267717065,-0.3471614824184498,0.2113806546459647,-0.004252096719942134,0.0,0.0,0.0,0.0,25,500,28003.354936521493,,,,2026-02-02T00:02:23.000Z
29.990123416704016,16.18628868995448,997.9948385513064,-1.990296963706759,-0.9026057286873292,4096.519765588497,0.9177721505515003,1.1828949388779253,2.5893897173890488,0.0,0.0,0.0,0.0,25,500,27991.005870134224,,,,2026-02-02T00:02:24.000Z
29.993177610052257,16.098448500243467,998.0006351555772,-0.3630063242713343,-2.0358229809543182,4097.563645743555,1.2101660953653188,-1.5444549090835542,0.14468613052503645,0.0,0.0,0.0,0.0,25,500,28001.851261569376,,,,2026-02-02T00:02:25.000Z
29.994950217649926,15.945633225612466,998.0076703079449,-4.354130092885709,-1.6443312133788137,4093.526098578244,-0.6449284603222979,0.5201764216002716,0.576192750328422,0.0,0.0,0.0,0.0,25,500,28018.98555448872,,,,2026-02-02T00:02:26.000Z
29.988811534818687,16.003004136452127,997.9900084005654,0.3569533277707795,-2.5752105673061223,4093.359086773831,0.7932624959550306,-0.011589784318821215,1.3999034411695583,0.0,0.0,0.0,0.0,25,500,28014.26132819595,,,,2026-02-02T00:02:27.000Z
30.01290160023766,15.870356162441501,998.0037368414347,2.8577154156271347,-1.8008969227560536,4097.043883131234,-0.7554608013928819,0.5660574588320672,1.2776333498078092,0.0,0.0,0.0,0.0,25,500,28008.088922453702,,,,2026-02-02T00:02:28.000Z
30.013276978629317,15.90308806557017,998.0146849340437,-2.9482642640842114,2.8389113615956783,4096.593969346466,2.2331159171321766,-0.48348390840381605,0.5107320661358935,0.0,0.0,0.0,0.0,25,500,27999.355507211618,,,,2026-02-02T00:02:29.000Z
29.9980420829886,16.014944115261372,997.9935925613429,-1.1718553466355106,-1.830954058180585,4096.500985700692,-0.6929570045312151,-0.8179372904264822,-0.14114031944383582,0.0,0.0,0.0,0.0,25,500,27995.053319420997,,,,2026-02-02T00:02:30.000Z
29.99607240077916,15.950554539717954,997.9845294707827,0.6582135574202591,0.2529184381213801,4096.692896418994,1.026087440960004,0.14050890428560542,0.5141326999931192,0.0,0.0,0.0,0.0,25,500,28007.577513152773,,,,2026-02-02T00:02:31.000Z
29.981845180866806,15.895540021062159,998.0028983995705,2.5056852688549673,-1.0057375073419117,4094.639950556843,0.8437900258815756,1.6491913233344617,-0.816184171876115,0.0,0.0,0.0,0.0,25,500,28000.253946525,,,,2026-02-02T00:02:32.000Z
30.006959612553036,16.04898407647379,997.9880800299346,-0.8964492326002989,2.357731874073878,4096.464507394322,0.3160878221089338,0.8609101045414628,0.15213371886411586,0.0,0.0,0.0,0.0,25,500,28000.597044393722,,,,2026-02-02T00:02:33.000Z
30.016534401088258,15.991774991334667,997.9918100142653,-1.3845006585317927,2.622324593207233,4096.586144946597,-0.6705431614166831,-0.5076927701800915,-1.1093075324979949,0.0,0.0,0.0,0.0,25,500,27984.48784387119,,,,2026-02-02T00:02:34.000Z
29.993628052827404,15.843244962830896,998.0092333694171,-3.9378462848321663,1.7281399642778938,4094.5712971639473,-0.1513974919414092,-1.3409720359812798,-1.7808816400803014,0.0,0.0,0.0,0.0,25,500,27992.854696177743,,,,2026-02-02T00:02:35.000Z
29.998832154742235,15.792485303383222,998.0187689927537,0.20687625861621275,0.6122691062055107,4099.731549022289,-2.153588112944552,-1.6820672836977855,0.05042676413944306,0.0,0.0,0.0,0.0,25,500,28007.51860467317,,,,2026-02-02T00:02:36.000Z
30.004342914613158,15.942998850142574,997.9899930988366,4.084152080287488,-0.46211907368179717,4096.947665841823,0.22442003838225033,1.3160994518504814,1.2622778906716723,0.0,0.0,0.0,0.0,25,500,27988.989331592515,,,,2026-02-02T00:02:37.000Z
30.0172441836061,15.841173485655847,997.9926258025998,0.5547169239293518,-2.3837494083824997,4093.6173930055947,0.34961533102838527,-0.9550822881358275,0.9258046415960592,0.0,0.0,0.0,0.0,25,500,28002.657070986024,,,,2026-02-02T00:02:38.000Z
30.001997762218352,15.813108859352935,997.995601310376,-0.04455795836742663,3.8870577622443943,4097.313107217267,0.13349941906137147,-0.32551341299493647,-0.08191229572560826,0.0,0.0,0.0,0.0,25,500,28004.12503594864,,,,2026-02-02T00:02:39.000Z
30.001954299160264,16.11289692014021,997.9945219194648,0.6441646215339709,-1.5193460355051067,4094.0506366595455,-2.9733061712925575,1.3212111260775763,1.7469896981754964,0.0,0.0,0.0,0.0,25,500,28004.70887815754,,,,2026-02-02T00:02:40.000Z
30.001793185011596,15.990228911013471,998.0193329251381,-0.02218400789720412,1.3272926940656828,4097.574169207485,-1.265636445089811,-1.6139014554789917,-0.5690613908465737,0.0,0.0,0.0,0.0,25,500,28005.602642163576,,,,2026-02-02T00:02:41.000Z
29.985749674930965,15.97345536217745,997.9946943217032,-1.6260287445202597,2.1191311452467945,4098.317191158015,-0.7480909828486626,1.4922645094750588,-1.9178326617980233,0.0,0.0,0.0,0.0,25,500,28006.277260531402,,,,2026-02-02T00:02:42.000Z
29.9855320934617,15.981159418384925,997.9961224808548,1.6465598313554106,-1.1105609938106589,4094.358635363297,0.2916589331890461,-0.2536404538925019,-2.182101294200962,0.0,0.0,0.0,0.0,25,500,27993.762069079574,,,,2026-02-02T00:02:43.000Z
29.991920048308852,15.886216784920704,998.0161617747317,0.4515230462235088,2.0760250546319243,4097.926752258489,0.2893389056429845,-1.1485833152387388,-1.181190940595717,0.0,0.0,0.0,0.0,25,500,27985.323454363388,,,,2026-02-02T00:02:44.000Z
30.010128905740373,16.041097616501418,998.0057667631154,0.03522650386731463,1.5284264066777107,4096.825561853873,-0.17022379197117923,-0.24735092714891319,0.8166247432622288,0.0,0.0,0.0,0.0,25,500,27991.264645876166,,,,2026-02-02T00:02:45.000Z
29.99664642929454,15.986929967326747,998.0098589923294,-1.9507320545565,3.4559276707635305,4097.644120319989,0.6352455366039567,-0.7225967814014777,-0.6348026834673863,0.0,0.0,0.0,0.0,25,500,28007.29921196905,,,,2026-02-02T00:02:46.000Z
29.994703959511977,15.924259134402059,997.9909388712698,2.6070158638695182,-0.9386929328534224,4099.793585965308,-1.0262423753029,0.4408197989057157,0.46095864185730206,0.0,0.0,0.0,0.0,25,500,27987.991534062043,,,,2026-02-02T00:02:47.000Z
29.994528253958563,15.9392371315475,997.9946982031682,1.3294054906662198,-2.5717280345594298,4095.509223767994,0.6102350056939962,-0.6481324338877777,1.6462833835839772,0.0,0.0,0.0,0.0,25,500,27989.593893201156,,,,2026-02-02T00:02:48.000Z
29.99862343121527,15.87725412867877,997.9896028164233,-1.105841674734604,-1.0109795108890223,4094.492527671285,0.47474210483989104,-1.911642210919043,-1.100096962577806,0.0,0.0,0.0,0.0,25,500,27989.538559992423,,,,2026-02-02T00:02:49.000Z
30.017021079341017,15.959375712709816,998.0080126154603,2.0036497073638744,0.41770708506866344,4094.220971140749,0.3775547328379105,-0.22056253440898946,0.47849973179588984,0.0,0.0,0.0,0.0,25,500,27981.540255452568,,,,2026-02-02T00:02:50.000Z
29.99848802614303,15.97603721192175,998.0122524320778,-0.9951416767704143,0.11642545417011294,4094.368379430069,-0.18204043108565582,-1.356545052286539,0.5389630726557222,0.0,0.0,0.0,0.0,25,500,27988.529956338683,,,,2026-02-02T00:02:51.000Z
29.992137025946253,15.956771667087004,997.9940022563081,-1.564006985022074,-0.7868757925491009,4095.8457965811717,1.8307438248312617,0.20431988398831977,-0.8607379884731032,0.0,0.0,0.0,0.0,25,500,28010.003969133235,,,,2026-02-02T00:02:52.000Z
30.000252456290816,16.00551545573416,997.996357586771,-1.5194062349605741,-3.818394917954486,4096.682303949633,0.4931956884898786,-1.1871303322833242,1.3542109252450831,0.0,0.0,0.0,0.0,25,500,27992.832353472844,,,,2026-02-02T00:02:53.000Z
30.017550836057616,15.992148829523824,997.9967950993496,-3.5421371061761824,0.940965992258213,4096.55338159866,-0.9683358632535589,-0.4880128031720859,-0.28770705554947656,0.0,0.0,0.0,0.0,25,500,27982.510618434455,,,,2026-02-02T00:02:54.000Z
29.994971752810645,16.02307685386646,997.9845277600672,0.9430847608364115,3.9446889581644,4097.654366498072,0.2483054757359842,0.1825878042143362,-0.3837529809130093,0.0,0.0,0.0,0.0,25,500,27994.883561450853,,,,2026-02-02T00:02:55.000Z
29.98818994991569,16.094309703692158,997.9932617792224,-3.6622897566767003,0.9285024762460071,4096.026003783756,0.7524833770742185,-0.2124587250342695,2.111613218417973,0.0,0.0,0.0,0.0,25,500,28005.105472158935,,,,2026-02-02T00:02:56.000Z
29.994990087302696,16.059302347721307,998.0077326621476,-2.4568876625315252,1.2182710381070272,4098.907068154314,-0.5881085989243096,0.25043028300104486,0.5227667423667182,0.0,0.0,0.0,0.0,25,500,27981.692272351163,,,,2026-02-02T00:02:57.000Z
30.001287637363486,16.095458984051035,997.9912458149555,-4.1511760181570665,1.1448906123102036,4095.470686333524,1.089272246931099,0.6802871657177568,0.9252905496854981,0.0,0.0,0.0,0.0,25,500,28009.53310309766,,,,2026-02-02T00:02:58.000Z
30.006882409508254,15.915226577017377,998.000929818622,-0.17213938558178613,0.7940933397647998,4101.440338333179,0.3820337057160107,-1.157933699731306,1.3548929315218388,0.0,0.0,0.0,0.0,25,500,27985.590191846408,,,,2026-02-02T00:02:59.000Z
30.01006883578682,15.949138510591133,997.9869198102554,-0.30064092054374414,1.8633319337361895,4097.25133469553,-2.342478337665347,-0.06439754062470791,-0.6504739994592169,0.0,0.0,0.0,0.0,25,500,27996.04516361013,,,,2026-02-02T00:03:00.000Z
29.989542827260376,16.065359668394596,997.9985599908887,-0.6533924263727281,0.7907473623713317,4094.2856848871675,0.29967197733792633,-3.329503797508129,1.2498210970536792,0.0,0.0,0.0,0.0,25,500,27995.917348900042,,,,2026-02-02T00:03:01.000Z
29.99049154665541,16.067147767143208,997.9943667884542,-2.0851553893411525,-0.6253543393065519,4093.858215003878,-0.40602915441271537,0.24733330168252382,-0.50189411499767,0.0,0.0,0.0,0.0,25,500,27994.385598932444,,,,2026-02-02T00:03:02.000Z
29.996767377406126,15.932137938246312,997.9877832851622,-2.34446750687328,-1.591977820017508,4096.964944830486,0.537179814541736,-0.3008141303748423,-0.5446233893382973,0.0,0.0,0.0,0.0,25,500,27999.351983015185,,,,2026-02-02T00:03:03.000Z
30.00684493024697,16.061158392578175,998.0079038609615,0.9287397270931483,-0.49794731056135044,4095.5530744293483,0.9442148402518143,-0.9834497634779713,-0.27199997230813616,0.0,0.0,0.0,0.0,25,500,28007.785603539767,,,,2026-02-02T00:03:04.000Z
29.987399921023478,15.905646788335407,998.008466273612,-1.1011038634169754,0.6282589929013319,4097.428000988184,0.195162047141818,0.31571942229652405,-0.6220648349449548,0.0,0.0,0.0,0.0,25,500,27999.59198418697,,,,2026-02-02T00:03:05.000Z
29.993926730895822,16.04810557241418,997.9903046128776,0.6327166430722895,-0.6321659222459467,4096.946475249147,1.6652522339446956,1.1726975771850674,0.8221564326571629,0.0,0.0,0.0,0.0,25,500,27993.94326339907,,,,2026-02-02T00:03:06.000Z
29.99407256270588,15.997370379913436,997.9978381653581,-1.770497372248445,0.628677366262861,4095.8543421746863,-0.17870688456349573,-0.4760177475989431,0.2672106551450557,0.0,0.0,0.0,0.0,25,500,28004.57348684761,,,,2026-02-02T00:03:07.000Z
30.009417488553645,15.861556439609366,998.0004431868307,0.36212548554216467,0.8783002674008351,4094.306412563863,0.6248178230538752,-0.9448144902417202,-0.49122441461711286,0.0,0.0,0.0,0.0,25,500,28002.072637286226,,,,2026-02-02T00:03:08.000Z
30.005282607606645,15.95659261782406,997.9818523821287,2.6065560746321275,1.6663588625403636,4092.9703055506284,0.8049425736373473,0.16502526243871166,0.6745050331548218,0.0,0.0,0.0,0.0,25,500,27993.304964400733,,,,2026-02-02T00:03:09.000Z
30.0090371836105,16.218226780969548,997.9860290727361,1.1723316007855666,2.5655899376779607,4095.106970095866,-0.09734596889273275,-1.3356066666463606,-0.275182437386346,0.0,0.0,0.0,0.0,25,500,28000.423014220843,,,,2026-02-02T00:03:10.000Z
30.01338677974233,16.020278036280498,998.0128628443637,-0.8248276364329608,0.156014836957715,4097.712797588647,0.7787743079777822,-0.6603813705355391,-0.3280703703646766,0.0,0.0,0.0,0.0,25,500,27992.476574967925,,,,2026-02-02T00:03:11.000Z
29.99694349904911,16.230044997671826,997.989348731035,0.5143979407118547,-2.6155531302953214,4096.428187488261,-0.5946729871621688,1.2224021616505023,0.04868388490154364,0.0,0.0,0.0,0.0,25,500,27991.34261271603,,,,2026-02-02T00:03:12.000Z
29.988125938451464,15.855607347012496,998.0125818310826,-0.48133034906042604,-0.6902081936383802,4093.508522442576,-0.4225684190212185,0.06217922981228763,0.4634603556662172,0.0,0.0,0.0,0.0,25,500,28008.0580121415,,,,2026-02-02T00:03:13.000Z
29.98819036382153,16.075074179266384,997.9865458632562,0.015760369389456304,0.08812513481319871,4096.346361851703,-1.3124886903363124,-1.8794669639461663,0.3898476493774196,0.0,0.0,0.0,0.0,25,500,28004.46958806569,,,,2026-02-02T00:03:14.000Z
29.981618924349412,15.746566380819289,998.0065882777714,-0.6512221042970072,-3.6715375123541802,4096.770634759458,0.24140911637004694,-1.796991647279401,-0.3632491822528304,0.0,0.0,0.0,0.0,25,500,28007.703796352365,,,,2026-02-02T00:03:15.000Z
29.99541233170334,15.999976451508521,997.9968869689249,-0.3286704117707824,2.777329040204964,4094.2322851275976,0.32525167585434406,0.16208569264677555,0.8471112074394023,0.0,0.0,0.0,0.0,25,500,28006.351285011515,,,,2026-02-02T00:03:16.000Z
29.99615777385168,16.063121737765133,997.9982923373085,0.42418670614835047,0.28475582502093255,4096.307450211891,1.1792631585792293,0.8623905759176876,-0.22239415107965607,0.0,0.0,0.0,0.0,25,500,27991.12780740946,,,,2026-02-02T00:03:17.000Z
30.00787553406805,16.08378900949963,998.0185593591353,-1.9867173991639013,0.7627056691605698,4096.116417436892,0.7911400043558836,-1.6176214586261501,-0.654984488608719,0.0,0.0,0.0,0.0,25,500,28010.012819300668,,,,2026-02-02T00:03:18.000Z
30.000169142171767,15.920073027541958,997.9874581336568,-2.0317576539799567,2.7310529250525315,4093.714059404339,-0.28479555664743317,0.4497126074965085,-1.4680216487673514,0.0,0.0,0.0,0.0,25,500,27997.023928897182,,,,2026-02-02T00:03:19.000Z
29.995096715556574,16.103909042197674,998.0059479819627,-2.777085107662422,-1.2602856602846937,4096.715574720696,-1.178179687334277,1.3303435074897187,0.9831784809990213,0.0,0.0,0.0,0.0,25,500,28009.292178232674,,,,2026-02-02T00:03:20.000Z
29.998840012738395,15.94662852399553,998.0055348966356,-3.20054220900742,1.1480838617680602,4097.121569052736,0.432850402519974,1.8878589879586387,0.012390076194007553,0.0,0.0,0.0,0.0,25,500,27998.74883390029,,,,2026-02-02T00:03:21.000Z
29.989610265162852,15.98359027488876,998.0335457338916,-2.4345653844409587,-0.21972824620387135,4098.166102486351,1.110753172414642,0.3312227598598763,0.21087235851051478,0.0,0.0,0.0,0.0,25,500,28003.131630878794,,,,2026-02-02T00:03:22.000Z
30.010254065707514,15.956667778064336,997.9892286917977,0.31892501360825837,-0.3681737340318388,4098.10760410407,0.7551849738039433,0.5068025945524742,1.0458029156995154,0.0,0.0,0.0,0.0,25,500,28003.43227928947,,,,2026-02-02T00:03:23.000Z
29.992140844371907,15.886361064926767,997.993740152065,-1.7855750309837681,-1.5443847756087585,4093.2446612640856,1.0844775248572875,-2.133184427628144,-0.47740623159781603,0.0,0.0,0.0,0.0,25,500,28008.132003852843,,,,2026-02-02T00:03:24.000Z
29.98860068728064,16.156971958742087,998.0081592228584,1.0272289284621925,3.3312064273730546,4094.1243499201696,-0.21188953119824255,2.099752547995989,-1.3743992484741285,0.0,0.0,0.0,0.0,25,500,27983.65453878991,,,,2026-02-02T00:03:25.000Z
30.008178819667076,16.00480178171581,997.997997361408,0.06942749750512373,-0.7510000801511418,4097.030070534417,-0.4666189681756455,-0.5754902130961214,0.06978070221521851,0.0,0.0,0.0,0.0,25,500,27984.236022872905,,,,2026-02-02T00:03:26.000Z
30.00574164208364,16.108731837865864,997.9953694904327,-3.9370084268761074,1.3989284937914042,4097.027571901825,-0.736901352231799,-0.9334711584250414,0.3079615520802954,0.0,0.0,0.0,0.0,25,500,28006.71710865102,,,,2026-02-02T00:03:27.000Z
29.98276314621441,16.10447112417646,998.0095751148832,1.3099511684433796,-3.750014774943873,4097.030095372612,-0.05589646661359551,-0.2552061344396246,-0.2628490661603728,0.0,0.0,0.0,0.0,25,500,28003.563624649934,,,,2026-02-02T00:03:28.000Z
30.0085500163471,15.903205978572702,997.997334315637,1.6215972911834198,2.359977059379573,4103.705462981309,-0.0785907959688194,1.511673414185431,1.473737578076169,0.0,0.0,0.0,0.0,25,500,27992.243563518114,,,,2026-02-02T00:03:29.000Z
29.99258407360906,16.12161272476716,997.9910814092962,-1.9877253496697067,2.104422311914117,4097.141781021386,0.2066776285391162,2.208046047543548,-2.4861665677213565,0.0,0.0,0.0,0.0,25,500,28003.64308909017,,,,2026-02-02T00:03:30.000Z
29.99625895472436,16.050341424354933,998.0072621015477,0.8403830857899832,0.19486822059460607,4098.271131280361,-0.129297457035508,0.12540867947584441,1.120056637899783,0.0,0.0,0.0,0.0,25,500,27985.92039789896,,,,2026-02-02T00:03:31.000Z
30.00187020107694,15.895909813552711,998.0037528800802,-1.712996474818398,-0.4538849322758487,4097.908003526986,-0.13362772972677125,0.9980841726036552,0.7911536503642258,0.0,0.0,0.0,0.0,25,500,28032.64289510869,,,,2026-02-02T00:03:32.000Z
30.00586624882617,16.04488508313415,997.996871534044,0.1953407534966708,0.8000000112271328,4097.302782502612,-0.7766940529721439,0.0432040486855039,0.4567707777004593,0.0,0.0,0.0,0.0,25,500,28013.11571386828,,,,2026-02-02T00:03:33.000Z
30.004454791746877,15.897703211513193,997.9963969848123,-2.5289968139099313,4.5775813217605785,4095.3694615107192,0.9416190135514908,-1.037795473018184,-3.3359015494690962,0.0,0.0,0.0,0.0,25,500,28006.223026774078,,,,2026-02-02T00:03:34.000Z
29.99950181669094,16.160645836797865,997.9908509339506,-3.5862129050691536,-3.5264733978069702,4097.517938440987,0.0765180622437113,1.4767436707882908,1.2838887832702683,0.0,0.0,0.0,0.0,25,500,28000.756303706774,,,,2026-02-02T00:03:35.000Z
29.995753566710842,16.08137867449221,998.0072509685511,-0.7656343792259374,1.5640547751482552,4094.454349570925,-0.17444393428528215,-0.622127480356389,-1.0264341106358852,0.0,0.0,0.0,0.0,25,500,27993.81271955195,,,,2026-02-02T00:03:36.000Z
30.004122206935655,15.992885143780896,997.9963989218274,-0.2474578925496723,-1.8232346043078052,4095.52636278652,-0.7474292532492047,1.5355307733718824,-0.5076919783833868,0.0,0.0,0.0,0.0,25,500,27986.898137606542,,,,2026-02-02T00:03:37.000Z
29.998816121626557,16.12648036182172,997.9923015409643,-0.7953593872292081,-0.039836792599462406,4095.0292729043417,-1.331913110391086,1.2985413297690838,-0.17059266479006882,0.0,0.0,0.0,0.0,25,500,27998.861773725104,,,,2026-02-02T00:03:38.000Z
30.018053544591258,15.841801235529646,997.9871444483281,-2.368061116445119,-0.49576023815732606,4096.163748278773,1.3079641925493437,0.6140362639572081,0.40741803465197535,0.0,0.0,0.0,0.0,25,500,27991.40239364305,,,,2026-02-02T00:03:39.000Z
30.0058640900997,15.925065869987996,998.003921543579,-0.7997981242622741,-0.8566365155955113,4100.629317133347,0.5546387081318072,1.828974756254353,0.6394280421925499,0.0,0.0,0.0,0.0,25,500,27991.98558151347,,,,2026-02-02T00:03:40.000Z
29.990765843750097,15.974758027825963,997.9949141702109,0.538589505161468,-0.020930258105458677,4092.2654696148165,-1.6239178425699672,2.2323460331857383,0.8928405543192964,0.0,0.0,0.0,0.0,25,500,27985.832433602256,,,,2026-02-02T00:03:41.000Z
29.995224000486264,16.223568468142552,997.9798732468602,-0.08978606024507396,-2.268342290555581,4097.372520380749,0.7631423007096569,-0.1752433629643115,0.8158535100785161,0.0,0.0,0.0,0.0,25,500,28002.496630519312,,,,2026-02-02T00:03:42.000Z
30.000481921772597,15.89295170991266,997.9879673121036,0.3650020611984268,2.058360872255934,4092.7745682576206,0.9224811702331092,-0.8087941184164312,0.25292720421312587,0.0,0.0,0.0,0.0,25,500,27996.23006494177,,,,2026-02-02T00:03:43.000Z
30.012994312150706,15.829269405825933,997.9976640306434,-1.3402304009084658,-3.5882870223972008,4095.056136268421,0.12437612230092951,-1.8642698372564723,0.4159226590575908,0.0,0.0,0.0,0.0,25,500,28005.35071574826,,,,2026-02-02T00:03:44.000Z
30.01411105009112,15.855561448550173,997.9979446233508,2.343435829432319,1.079529025656684,4098.177901193934,1.598110895751759,2.244682255430256,-1.0907537158222465,0.0,0.0,0.0,0.0,25,500,28004.57098793655,,,,2026-02-02T00:03:45.000Z
29.996038652796344,16.09062158692056,997.9975645774963,-2.3523466731095612,-0.6530717050691422,4096.128560038191,0.21671964212288297,-0.43968200891844966,-0.7510268068190222,0.0,0.0,0.0,0.0,25,500,28002.294646300797,,,,2026-02-02T00:03:46.000Z
29.990663657834105,15.940580772946115,997.9961724388843,0.9751205941734372,-2.3418497876149074,4093.844510444141,-1.4168235279491899,1.1350368571017395,0.8954602236748322,0.0,0.0,0.0,0.0,25,500,28026.59440258054,,,,2026-02-02T00:03:47.000Z
29.98938502358794,15.98409133356314,997.9852414627726,2.363782185919923,0.4047667411973904,4094.56939258148,0.365169001048321,-0.7412553675094832,0.8372094867286812,0.0,0.0,0.0,0.0,25,500,28008.237055135654,,,,2026-02-02T00:03:48.000Z
30.002524287572157,16.076283264167447,997.9912545147586,0.9618161854977908,-3.113902173412956,4097.359195497869,0.24489730171272925,1.538265640912035,0.7237994164444209,0.0,0.0,0.0,0.0,25,500,27987.3943398935,,,,2026-02-02T00:03:49.000Z
30.023037843092176,15.98419153720421,998.0118377698649,-0.40504845412966006,0.07942764343926936,4094.539266736566,-0.6032968487781549,-0.7001175918154133,-0.5144167616565275,0.0,0.0,0.0,0.0,25,500,28004.587364479215,,,,2026-02-02T00:03:50.000Z
30.005390941042553,16.020414660450804,998.0103622812685,-1.0565940933259583,-2.845753815623109,4096.432917179164,0.573558836877425,-1.1917191336173432,0.9104921319436958,0.0,0.0,0.0,0.0,25,500,27999.459812570316,,,,2026-02-02T00:03:51.000Z
29.98406087473316,16.05352151476097,998.0057795178234,2.072175302092512,0.9225441686356624,4096.091143679808,-1.667665266190862,-0.20850643095375032,-1.161244452480358,0.0,0.0,0.0,0.0,25,500,27986.584694291734,,,,2026-02-02T00:03:52.000Z
29.99273995896754,15.956932360803979,998.0048950260405,-2.845949850523346,-1.848714667260751,4094.6967993047883,0.9905668274427895,-0.5317757009616373,1.077359809862273,0.0,0.0,0.0,0.0,25,500,27985.783671199235,,,,2026-02-02T00:03:53.000Z
29.993760857981552,15.98336829400703,998.0090475590806,-1.9402485207592872,-0.9019880340586188,4100.287888178651,-0.8781217036054526,0.5962997854612124,-0.2608708012458902,0.0,0.0,0.0,0.0,25,500,28004.532029172795,,,,2026-02-02T00:03:54.000Z
29.991779974798852,16.0241955402321,997.9887920526251,-0.7951155309834428,0.5878987758863244,4097.267838044636,-0.9849461251170324,-0.05139492719252362,1.6841704063406324,0.0,0.0,0.0,0.0,25,500,28006.975475348787,,,,2026-02-02T00:03:55.000Z
29.996121061750657,16.086817927305322,998.0003292836676,2.4753075150239963,-1.5450842236844717,4091.9497148266846,-0.11382477230747688,0.6277023945519214,-1.521442092065485,0.0,0.0,0.0,0.0,25,500,27989.537428006755,,,,2026-02-02T00:03:56.000Z
30.0036939486102,15.920763073581934,997.9887973284935,0.7595352720817921,-0.11592799933660505,4096.372908629539,0.4329729280436354,-0.29102147308529397,1.7634040459185218,0.0,0.0,0.0,0.0,25,500,28009.701670531947,,,,2026-02-02T00:03:57.000Z
30.006819811693227,15.697942407817022,997.9889708553023,-1.9360915170204906,-3.0276610024897073,4094.6764270704634,0.16392406359342962,-0.6651073710188052,-0.36146432916346183,0.0,0.0,0.0,0.0,25,500,28002.849143968153,,,,2026-02-02T00:03:58.000Z
30.010917634909166,16.067958314938565,998.0036806493774,-0.6206154107698073,1.2617512071923112,4097.704866669593,-0.7426591657723782,-0.5835605478960735,-0.3794792560117442,0.0,0.0,0.0,0.0,25,500,28011.958591569426,,,,2026-02-02T00:03:59.000Z
30.00524202573047,16.092771591875007,998.0094675043914,-1.2286462881925888,3.5298276111015428,4094.4149585231344,-0.5060892911918885,2.0449387980310263,0.1948388189855969,0.0,0.0,0.0,0.0,25,500,28010.896203983393,,,,2026-02-02T00:04:00.000Z
29.98045849759671,16.02000341621302,997.9980615086557,-1.4195779844670702,5.5844177358199225,4095.770527117066,-1.133042347377462,0.22517093222693582,-0.6970789128006968,0.0,0.0,0.0,0.0,25,500,27998.41563084597,,,,2026-02-02T00:04:01.000Z
29.98942695412469,16.026829321895654,998.0164900043221,1.9577791171135583,0.18233629333287835,4097.009974557961,-0.22467990162987012,-1.9837622094530445,-0.07232900130230689,0.0,0.0,0.0,0.0,25,500,28016.35599730102,,,,2026-02-02T00:04:02.000Z
29.99841905963141,15.943569010585984,998.0021178432704,-2.7434862585270112,1.5764082815943734,4097.73151038834,1.0750212145109097,-0.520209013454081,-0.7376262652708545,0.0,0.0,0.0,0.0,25,500,27988.758839098795,,,,2026-02-02T00:04:03.000Z
30.001472798557675,16.050018342153493,997.9922321446759,3.217561711468747,-3.5612513458149784,4093.5994071858886,-0.004262937643876164,0.09686603247587562,-0.701063530979187,0.0,0.0,0.0,0.0,25,500,28023.902945049507,,,,2026-02-02T00:04:04.000Z
30.008614183598763,16.08531668196842,997.9891327144812,1.6564593803692456,3.0054686526111762,4095.330997528318,0.8594142547594531,1.8453996812503788,0.48688595030057186,0.0,0.0,0.0,0.0,25,500,27991.212143195142,,,,2026-02-02T00:04:05.000Z
30.00043184176217,16.00564963414185,998.0101813148418,2.181723341207396,1.5524570094482122,4095.050109377678,1.4554013377261916,1.0286987158898995,-0.901565495303516,0.0,0.0,0.0,0.0,25,500,27999.51997268322,,,,2026-02-02T00:04:06.000Z
30.000507072538635,16.249124833000728,998.0012845911574,-0.9258790240505166,-0.967866889902466,4094.6933415348526,-0.588018519036967,-0.9217178364819151,-0.7681942350054822,0.0,0.0,0.0,0.0,25,500,27994.328117013873,,,,2026-02-02T00:04:07.000Z
30.00237797363139,15.843625891232861,998.0067604737817,-0.2998814381582187,2.4743616005780185,4099.530908480562,-0.18657325305536468,2.418355753572451,-1.372791249746409,0.0,0.0,0.0,0.0,25,500,27996.232090121204,,,,2026-02-02T00:04:08.000Z
29.99744978261219,16.016296167085635,997.9734203673954,-2.866303629049424,-0.508952153290683,4096.809963421922,2.171192861062495,-0.031160364801477616,-0.5039306799613394,0.0,0.0,0.0,0.0,25,500,28029.23553662514,,,,2026-02-02T00:04:09.000Z
30.000868851398778,15.882564703768269,998.0024467203434,-1.049324814133606,-0.916050366029113,4093.47823209133,1.4443434119799452,1.2463298110749446,1.311602029723922,0.0,0.0,0.0,0.0,25,500,27995.37279312589,,,,2026-02-02T00:04:10.000Z
30.011258321790116,16.08798459239569,997.994882258115,0.9873096952863017,0.9506698508549826,4097.83572389411,-1.6724045258123525,-1.1550084973999026,-0.8459336401029685,0.0,0.0,0.0,0.0,25,500,28008.51108372293,,,,2026-02-02T00:04:11.000Z
29.99916089101216,15.841852457195781,997.9860624046408,2.5921261235627924,-2.126708999660637,4100.244312394026,0.38714831606090655,-2.3981630952508977,-0.7316332651872413,0.0,0.0,0.0,0.0,25,500,27997.645970887137,,,,2026-02-02T00:04:12.000Z
29.999697872732156,15.86660784572823,997.9993731765705,-2.2143136336049034,2.043249528799896,4098.064930521103,0.0005599923396953997,-1.4084314903683608,0.19392194648153552,0.0,0.0,0.0,0.0,25,500,28009.365504295878,,,,2026-02-02T00:04:13.000Z
29.999664145952327,15.93668130594508,998.0109181353365,-0.7310118739705317,-2.1119796238536868,4092.961260068092,0.8264531108587624,-3.250333476195706,-0.3707964337995265,0.0,0.0,0.0,0.0,25,500,27994.55840481629,,,,2026-02-02T00:04:14.000Z
30.012977738137913,16.02658321698554,998.0226622828642,-0.30259844046504464,-2.1001095796463725,4095.0315318542675,-0.7449787674850553,2.1120893272529084,2.22815443334965,0.0,0.0,0.0,0.0,25,500,28002.56132093659,,,,2026-02-02T00:04:15.000Z
29.988919466731705,15.940452861133839,998.0024215240733,-2.7915784043849703,-1.8193795768166687,4098.533822298373,-0.8396083720406722,0.21453291888641599,-0.16252796467625671,0.0,0.0,0.0,0.0,25,500,28006.286983004728,,,,2026-02-02T00:04:16.000Z
30.01775846894791,15.941455873740091,997.9929085341004,1.1826984835168006,1.5190000750322443,4094.584661068762,-0.6760707152936095,-0.9246440184480313,0.33521834621737173,0.0,0.0,0.0,0.0,25,500,27992.781885466637,,,,2026-02-02T00:04:17.000Z
29.988236181454845,15.981910954507391,997.9923049744348,-1.4479806634852181,-1.2335507230394154,4096.887638856292,-0.5719285461984328,0.4526240299801209,0.943768784799322,0.0,0.0,0.0,0.0,25,500,28027.577259242255,,,,2026-02-02T00:04:18.000Z
29.99345779738672,15.975775984093849,998.0096313236206,-0.39078070235404794,-2.6959915687343377,4097.549268106859,0.8153241668090142,0.18933403618016584,0.9245778658628506,0.0,0.0,0.0,0.0,25,500,28006.80941043234,,,,2026-02-02T00:04:19.000Z
30.007447382697155,16.148744938831854,997.9900312588085,-0.9038987438237553,-1.211359999871596,4094.146139056844,-1.18120117314888,0.6209333956139913,0.23328758155737933,0.0,0.0,0.0,0.0,25,500,27997.740290454825,,,,2026-02-02T00:04:20.000Z
30.01030316695474,16.068591111966896,998.0062242737953,-1.5786770114393487,-0.06408474136097374,4095.8809492878763,-0.6226138999593189,1.2095314011362686,-0.16112748668600121,0.0,0.0,0.0,0.0,25,500,27993.027654831494,,,,2026-02-02T00:04:21.000Z
29.985965009830014,15.967542326021535,998.0029368118996,-0.014089970961109399,-2.361944967328771,4089.517465319862,-1.7890123905014412,-0.2899211530250153,2.024028536379257,0.0,0.0,0.0,0.0,25,500,28000.91723023627,,,,2026-02-02T00:04:22.000Z
29.989072981367528,16.20970119112136,998.0018310139188,-0.43121915713604475,-2.303362218068687,4093.9512247173316,1.007117823412373,-0.8798393061009868,-0.09976027531426664,0.0,0.0,0.0,0.0,25,500,27987.840019893865,,,,2026-02-02T00:04:23.000Z
30.002778428094718,16.0491661174856,997.9843188141012,-0.7437157645573311,4.222592668199169,4095.4948636972135,1.2710300994311405,0.8277752143719177,-0.4416901044284806,0.0,0.0,0.0,0.0,25,500,28017.8229526385,,,,2026-02-02T00:04:24.000Z
30.023444193877637,15.903103794468645,997.9964304179778,-1.4569232433606856,-1.7211308076277738,4093.50443363607,-0.3270734308637865,0.8023327778844658,-0.6458489882940185,0.0,0.0,0.0,0.0,25,500,28004.31253772401,,,,2026-02-02T00:04:25.000Z
30.012462627809988,16.025651373999185,997.9854184220865,0.6390493415659109,-0.6460847375460136,4099.264822607864,-0.297949364813223,0.10073580812134493,-1.726803202706756,0.0,0.0,0.0,0.0,25,500,27999.120139325885,,,,2026-02-02T00:04:26.000Z
29.99751902950368,16.053551254486532,997.9941175259868,3.30723453698457,-0.7344740015985717,4093.139717244079,0.45322190228289727,2.1775541886807726,0.8216157522371632,0.0,0.0,0.0,0.0,25,500,28010.459778543565,,,,2026-02-02T00:04:27.000Z
29.975808708619244,15.931237528093865,998.0091713866152,0.27977446567825476,-0.8427136155408838,4095.119911026606,1.4744820073782556,-0.43782212286165223,-2.3480683971008265,0.0,0.0,0.0,0.0,25,500,27992.78485221914,,,,2026-02-02T00:04:28.000Z
30.000816427344212,15.894749108919395,998.0123105790335,1.992236429822258,1.2426934799382046,4096.261481154572,0.40861074756391724,-0.8998579716352683,-0.005722840904920714,0.0,0.0,0.0,0.0,25,500,27988.440404135694,,,,2026-02-02T00:04:29.000Z
30.003622968036467,16.008645909004244,998.0021394864949,-2.7804438503069253,1.896285900944099,4098.882546578132,-0.6975419424751146,0.41809142750660166,-0.20486063427138504,0.0,0.0,0.0,0.0,25,500,27998.698669282712,,,,2026-02-02T00:04:30.000Z
29.99617304858917,15.963977822869396,997.9942965948757,0.31552287858753897,-0.6119088630631841,4093.128275697641,-1.6188225719864404,-0.6749378569134983,2.239965192231448,0.0,0.0,0.0,0.0,25,500,28001.275436494696,,,,2026-02-02T00:04:31.000Z
29.991492760094534,16.147912788845545,998.0158809933235,-2.194736637942133,-2.472956573184698,4098.32632750431,-1.1151262626634877,0.49551652414489566,-1.8316512287136264,0.0,0.0,0.0,0.0,25,500,28005.30586206593,,,,2026-02-02T00:04:32.000Z
30.001591652603214,16.074115582408492,997.9941640936624,-2.953849855063803,2.5488804556978066,4096.02046612204,0.07321945031246505,-0.8330082558394399,-0.901103286984357,0.0,0.0,0.0,0.0,25,500,27985.23722083568,,,,2026-02-02T00:04:33.000Z
29.99057738806106,15.935922472591342,997.9886431350819,-1.4787428149180726,-0.19068218239336523,4094.036982697904,-0.6553275232007943,-0.4002422829318855,-0.13609645868164935,0.0,0.0,0.0,0.0,25,500,27995.436831699808,,,,2026-02-02T00:04:34.000Z
30.018724486608086,16.042593811094857,998.0069648296792,2.3837986688271458,3.4606436297143373,4096.924206948526,0.1949677059907586,1.8908404200391653,-0.1975293374691683,0.0,0.0,0.0,0.0,25,500,27969.165352068314,,,,2026-02-02T00:04:35.000Z
30.015167447975337,16.126712814272473,998.0045773404257,1.9000316573392912,-4.491171795130326,4096.398119391147,-0.552924016236234,-0.4055873567476789,-0.5495445908100448,0.0,0.0,0.0,0.0,25,500,27988.17650829094,,,,2026-02-02T00:04:36.000Z
30.006579126315927,15.860619555410034,997.9945742408908,0.48600944410879937,0.39080644256664054,4094.7995662456824,-1.0581464312944115,-0.7988515440172963,-0.0809879094021674,0.0,0.0,0.0,0.0,25,500,28007.152615337003,,,,2026-02-02T00:04:37.000Z
30.000897105691195,15.897722175901224,998.0010022522957,-3.0654011197798616,3.8372126677524157,4096.13960416998,-1.177031631453071,1.1706787887065002,-1.2595627288697413,0.0,0.0,0.0,0.0,25,500,28009.610258085748,,,,2026-02-02T00:04:38.000Z
29.993398359133863,15.998883138272047,998.0044215998885,-0.3925613027758736,-0.7065282708763164,4095.2293728062764,1.5623545093732296,-1.0510419502866937,0.357192878994939,0.0,0.0,0.0,0.0,25,500,27988.57995464687,,,,2026-02-02T00:04:39.000Z
29.99979212816109,16.003560196790502,998.0020367884105,0.6034000178034711,-0.45098684666927213,4096.2270346905025,0.8889877491836431,-0.692943230147068,-2.3214853420775783,0.0,0.0,0.0,0.0,25,500,27996.753954509255,,,,2026-02-02T00:04:40.000Z
30.016392971352072,15.994780249453713,998.0045893895497,0.3510724591571958,0.5910233831806775,4097.324261349042,1.7305179518279585,0.5765611205089946,-0.02576935587725707,0.0,0.0,0.0,0.0,25,500,28000.25606155128,,,,2026-02-02T00:04:41.000Z
30.008686540584367,15.968922282121232,997.9949428513844,-3.6875871669614915,-1.1175916377699147,4099.172033632291,0.5399509007551029,0.9384114238732918,-0.6003566942635733,0.0,0.0,0.0,0.0,25,500,28010.78110138842,,,,2026-02-02T00:04:42.000Z
30.002036922784765,15.967393967754798,998.0052624504424,-1.7806356960397436,-0.6241438641054657,4093.5243690023462,-0.42999140861483903,1.2204763910810745,1.0162879427566356,0.0,0.0,0.0,0.0,25,500,28015.29094866517,,,,2026-02-02T00:04:43.000Z
30.009239743341677,16.038425813682164,998.0001755783759,-0.12815552829743326,-0.6756301883828061,4100.266066749313,1.323340922489938,-0.7472218322204848,1.7553110706333046,0.0,0.0,0.0,0.0,25,500,28001.53082255223,,,,2026-02-02T00:04:44.000Z
30.005456106633808,16.113394255363918,997.9952818947846,1.0725818190343799,-1.2548414688527465,4092.095824400955,-0.033068001361767865,0.5960086729861199,-0.3310521687503577,0.0,0.0,0.0,0.0,25,500,27997.393833444177,,,,2026-02-02T00:04:45.000Z
30.00396277539887,15.951904727031158,997.9975411523777,-4.392255642199893,2.457713100401119,4095.6964298099288,0.22084177029035232,-0.46610819954417965,1.390725929141431,0.0,0.0,0.0,0.0,25,500,27985.563063912992,,,,2026-02-02T00:04:46.000Z
30.009805632589917,16.243839934517066,997.9990209816408,-0.32424795095971687,0.9221560645928703,4097.176634412969,-0.042824379075518997,-0.6056556335106323,-0.31611628063041075,0.0,0.0,0.0,0.0,25,500,28001.08069234561,,,,2026-02-02T00:04:47.000Z
30.005170276448247,16.196069143574032,997.9855462166294,0.2860975397579047,0.5012564642066041,4096.56198373547,-2.9469042192840145,1.2032127822922853,-0.9661265231290901,0.0,0.0,0.0,0.0,25,500,28020.749225014904,,,,2026-02-02T00:04:48.000Z
30.008585514701032,16.132925562958008,997.9936334075343,1.6992239770324262,1.6171420137802335,4094.754600960359,1.6047350122948532,-0.5495543958595862,1.7459036321856196,0.0,0.0,0.0,0.0,25,500,28012.901925499373,,,,2026-02-02T00:04:49.000Z
30.001613870496346,16.062248333456157,998.0006490551559,1.3857151684748734,-0.5287116664069338,4095.5837554992854,0.49100394595775343,0.27820459602097986,0.5207764447340067,0.0,0.0,0.0,0.0,25,500,28001.748582962588,,,,2026-02-02T00:04:50.000Z
29.9974587417681,16.200798810647015,997.9864900896462,1.1651426376176104,-1.548407636705801,4095.0139981306825,0.32982306086851004,0.15557946923063878,0.004438522609814357,0.0,0.0,0.0,0.0,25,500,28003.033778087,,,,2026-02-02T00:04:51.000Z
29.9945183712106,15.97098846350006,997.9938007633818,-1.5998810134038683,-1.2052486092291148,4094.8212704861116,-0.0617760622705607,-1.0707543763385026,0.6871774750986485,0.0,0.0,0.0,0.0,25,500,27993.11483638548,,,,2026-02-02T00:04:52.000Z
29.99332690394529,15.916739558800977,998.0238464497837,-3.816004274246615,0.003566082209217804,4097.699204194042,0.163427820386131,0.9660928553563207,0.2742150351301673,0.0,0.0,0.0,0.0,25,500,27996.428643712235,,,,2026-02-02T00:04:53.000Z
29.983948295575583,15.947402794059602,997.9887074163518,-0.7861055141228019,-2.118423416745804,4096.71403097193,-0.5972789358462477,0.5602808936789537,-0.06921940794151801,0.0,0.0,0.0,0.0,25,500,28001.475991755844,,,,2026-02-02T00:04:54.000Z
29.990880600531884,15.899705719690992,997.9961618608735,2.00326365041712,-1.000522033173351,4094.6141808094785,0.6165793523072711,-1.9862906118704209,-1.3264348273079964,0.0,0.0,0.0,0.0,25,500,28001.506343403184,,,,2026-02-02T00:04:55.000Z
29.990591464704178,16.012180132231336,997.9916628272147,2.786909055048863,-1.0322332837428694,4097.799199750866,-1.3070983443991324,0.2774211112373432,-0.2705367371612667,0.0,0.0,0.0,0.0,25,500,28010.10749932903,,,,2026-02-02T00:04:56.000Z
29.99492654804016,16.029983046412774,997.9988312999604,1.4210982045955707,4.249112459658027,4096.6145990417535,0.18606843247054689,-0.772973434166621,0.6232554234584727,0.0,0.0,0.0,0.0,25,500,28009.620829327414,,,,2026-02-02T00:04:57.000Z
30.015622442106384,16.020083983868112,997.9918508165687,0.8586816456034687,-5.547629879867833,4097.625724237678,0.5615734705711045,1.0970753064126277,-0.12277142568681056,0.0,0.0,0.0,0.0,25,500,28005.20566780211,,,,2026-02-02T00:04:58.000Z
29.99842438044446,15.99875686478182,997.9975675687671,0.759279296771931,-0.3592394428112665,4097.259257683847,-0.198669133822903,-1.4453998367807581,0.9023257611303859,0.0,0.0,0.0,0.0,25,500,27990.008538218008,,,,2026-02-02T00:04:59.000Z
30.002417668898843,16.01331545281716,997.9928145296485,-1.112237493521561,3.4513875856295413,4094.342009978156,0.37086779247102475,-0.3564769686295441,0.38365502386678896,0.0,0.0,0.0,0.0,25,500,27990.385846788184,,,,2026-02-02T00:05:00.000Z
30.00273319644512,16.17363238088499,998.0105512781637,-0.26012058710724006,0.24368892826490793,4094.879637919606,-0.9913343922342502,0.36202455098846575,-0.8781363180854069,0.0,0.0,0.0,0.0,25,500,27991.121085297153,,,,2026-02-02T00:05:01.000Z
30.015875809128424,16.06200518676391,998.0008163703772,3.338139051652662,1.5068349468421856,4097.494587210246,-0.9658267708959641,0.05434029414187518,-1.3191719578321237,0.0,0.0,0.0,0.0,25,500,28002.355202892068,,,,2026-02-02T00:05:02.000Z
29.994244145461547,16.092250879660483,997.9899702734303,-1.8851160115837526,0.19965263019953583,4097.220740530867,0.23671712102639317,0.7629582567139714,-0.15717849993016805,0.0,0.0,0.0,0.0,25,500,27979.73678945244,,,,2026-02-02T00:05:03.000Z
29.99777477919742,16.01907899366868,998.0084079652383,3.229557581419703,-1.3346667624329607,4095.9581968120715,0.6785496546210517,-1.5184219860092891,-0.5242284481045876,0.0,0.0,0.0,0.0,25,500,27999.937249275354,,,,2026-02-02T00:05:04.000Z
29.99893800628226,15.838441130153193,997.9904173338397,-0.6440563089841168,-4.483831869017826,4096.2346547666175,-1.874865655501711,1.651914336867378,0.3363218096216861,0.0,0.0,0.0,0.0,25,500,28014.08642716454,,,,2026-02-02T00:05:05.000Z
30.01136534855775,15.818611752953048,997.9843591981108,2.650864218190157,0.4109113740726057,4098.555329791577,0.5220206351107666,0.5251446587882714,-0.7181376587627298,0.0,0.0,0.0,0.0,25,500,28006.668260346807,,,,2026-02-02T00:05:06.000Z
30.013441056937545,16.20828099902085,997.9999695751256,-2.8136300189950765,-1.5512132092047823,4094.8168572223285,-0.5432015003763371,1.359718213000896,-0.6153923257548771,0.0,0.0,0.0,0.0,25,500,27996.492723890544,,,,2026-02-02T00:05:07.000Z
30.00474583819694,15.946817772476878,998.0190726442434,1.1718084023292983,-1.6006708123306075,4097.0941947623405,-0.19280608730741247,0.8742401692332417,1.0530697175949124,0.0,0.0,0.0,0.0,25,500,27993.0174458625,,,,2026-02-02T00:05:08.000Z
30.012329093740618,15.938324865584807,997.9817233587108,-1.473540271895244,-0.9979745119582237,4095.595614695132,-1.3395179235650372,-0.01161011445504353,0.14820296862789786,0.0,0.0,0.0,0.0,25,500,28008.057152847767,,,,2026-02-02T00:05:09.000Z
30.00177660996469,16.024566324137727,997.9866901207843,-2.830534383848375,3.489722813246987,4095.5646375935457,-0.8516172401867081,-1.2841982109111607,-0.7027270654272929,0.0,0.0,0.0,0.0,25,500,28003.06055366052,,,,2026-02-02T00:05:10.000Z
29.998273967523833,16.055040297832992,998.0075252566317,0.43706808482189136,4.809675084507946,4098.197553703974,0.9661253255303113,-0.5635531812487009,0.017641808735019672,0.0,0.0,0.0,0.0,25,500,27997.535675474173,,,,2026-02-02T00:05:11.000Z
30.011787240865857,16.06768621373344,997.9935767860039,2.0189435771919375,0.4344158750568018,4097.6508326979765,0.032863373980213176,1.5895633328625773,1.3789112430016826,0.0,0.0,0.0,0.0,25,500,27994.10969121094,,,,2026-02-02T00:05:12.000Z
30.004876176752337,16.177441853288002,998.0061194856725,-1.6898828771869927,-0.9295344478234554,4097.627019272001,-0.3827784017095585,1.3854377816563823,0.29378668827472265,0.0,0.0,0.0,0.0,25,500,28000.763829896874,,,,2026-02-02T00:05:13.000Z
29.992644693340925,16.150073638265795,997.9916251109306,-2.9980319209168025,-2.3544528349024207,4098.610957614309,-0.11648835263103476,-0.61959998010369,0.5929508094251296,0.0,0.0,0.0,0.0,25,500,27996.96963236013,,,,2026-02-02T00:05:14.000Z
30.009974209381244,15.918906677536118,998.0014196217741,-0.18368952866991026,0.9370803230921382,4096.042007683265,0.4892118246643012,-2.8183042862021788,-0.7522345365274425,0.0,0.0,0.0,0.0,25,500,28007.843795699166,,,,2026-02-02T00:05:15.000Z
29.997915073689796,16.09687345734218,998.0174447392538,-0.17487065755436215,3.565811200130288,4097.36390594259,0.44049449616333775,-0.21268973430511875,1.0264193771346004,0.0,0.0,0.0,0.0,25,500,28012.411690959787,,,,2026-02-02T00:05:16.000Z
29.99669176477276,15.96159090817892,997.9880541035297,1.0966392551089974,-0.4946807740503135,4095.3794664868133,-0.07502700039680087,-0.2877028881291165,2.3181022604638017,0.0,0.0,0.0,0.0,25,500,27986.32750172157,,,,2026-02-02T00:05:17.000Z
30.008930043681996,15.986249125556922,998.0102376081014,1.8991891427289764,-4.7579920815064485,4096.648332704977,1.0929591108966683,-0.24977261204038337,-0.7914676425128536,0.0,0.0,0.0,0.0,25,500,27987.741804274712,,,,2026-02-02T00:05:18.000Z
29.99911167859155,15.890601079404863,998.0067970679663,-0.11883036254498819,1.3400993436310475,4095.7397138912647,0.9704626369066661,0.5285392018314015,-1.1818939743719894,0.0,0.0,0.0,0.0,25,500,28013.480561876488,,,,2026-02-02T00:05:19.000Z
30.003889585360405,15.830692714616859,997.985107557489,3.711006629588526,1.970799422900099,4096.193991929986,0.4133720291303957,0.8762125793216632,0.17554224383514822,0.0,0.0,0.0,0.0,25,500,28001.65818942664,,,,2026-02-02T00:05:20.000Z
30.00661939584071,15.996843828736772,998.0055890052374,0.44846948907058354,-3.171691280771695,4097.190314050874,0.05461178291007045,0.9902995470995242,0.8755050498444104,0.0,0.0,0.0,0.0,25,500,27988.68349363211,,,,2026-02-02T00:05:21.000Z
29.992170569207275,15.904401808388876,998.0007280612887,-0.6928530120137992,0.35296836732590564,4094.363558633533,0.6573210951195391,0.44570914013536694,-0.09138967205026136,0.0,0.0,0.0,0.0,25,500,28009.832516066606,,,,2026-02-02T00:05:22.000Z
30.003848505646822,16.092781367857203,998.0009109400992,-3.223134718205656,0.9024520322721976,4100.1847745513705,0.3142674218011834,-1.800770701922636,-1.0532063960426628,0.0,0.0,0.0,0.0,25,500,28003.41685099889,,,,2026-02-02T00:05:23.000Z
30.013494731052617,15.971892175647987,998.0033651756645,-0.5253190406323355,-0.14621460401787703,4093.9879652370005,1.0608000718059476,-0.3411997326932956,-0.10858416178038999,0.0,0.0,0.0,0.0,25,500,28022.03245761925,,,,2026-02-02T00:05:24.000Z
29.990435328562604,16.030859021894987,997.9964963415558,-0.6727738908222725,-1.5815418381707074,4093.5716227744247,0.8995613767383077,2.30408978354919,0.5980922727774546,0.0,0.0,0.0,0.0,25,500,27997.646983227343,,,,2026-02-02T00:05:25.000Z
30.004499088888313,16.136752575391544,998.0007009895894,1.9206095925629407,2.0318744471271124,4098.316221747,-1.0182539014177285,0.37421673480247836,-0.4070318269460593,0.0,0.0,0.0,0.0,25,500,28011.087039970687,,,,2026-02-02T00:05:26.000Z
29.991705322654198,15.851470481821789,998.0024145242504,0.9249672481337081,-0.8067594919373652,4097.5833253879255,-1.0859631707417063,0.3678195684438652,0.6072550177549216,0.0,0.0,0.0,0.0,25,500,27985.511655608672,,,,2026-02-02T00:05:27.000Z
30.010213976838404,15.927538261145031,998.0074605793889,-2.3587382432652344,-2.970372325399864,4097.248239634105,-0.7012495444040763,0.3594859397738579,1.1647107852399101,0.0,0.0,0.0,0.0,25,500,28013.960275501635,,,,2026-02-02T00:05:28.000Z
30.010119055837496,16.018088362456584,997.9847283896662,0.344508772822075,-4.098948971339362,4097.256691018529,0.9761386900669211,0.4153796225059898,0.24023062577044763,0.0,0.0,0.0,0.0,25,500,28009.44160058211,,,,2026-02-02T00:05:29.000Z
29.99645677659751,16.031252481582325,998.0129088589649,1.3430623434581068,2.5216990399986194,4095.975506454306,-1.5763089967712456,-2.3831121810859233,-0.02794777127829265,0.0,0.0,0.0,0.0,25,500,28016.043474337937,,,,2026-02-02T00:05:30.000Z
30.022096286521908,16.110349750127234,997.9884470965694,3.0560627187756655,1.2333279529422365,4094.2054912570284,0.3947573891079933,-0.23952431691106857,0.8293439252262819,0.0,0.0,0.0,0.0,25,500,28011.105803175087,,,,2026-02-02T00:05:31.000Z
30.01106625309137,16.086715312904058,998.0076162846415,1.7750079348281187,0.1759470942583379,4096.151609116388,0.36254309109296134,-0.03789283179468944,-0.8561008274372305,0.0,0.0,0.0,0.0,25,500,27999.009518141243,,,,2026-02-02T00:05:32.000Z
30.007069289851362,16.009693362573074,998.0007944509928,1.5216933086229556,-0.8805492737016071,4094.645676576976,1.1626480586861927,1.2814953992534124,-0.9547098336929226,0.0,0.0,0.0,0.0,25,500,27988.28873435963,,,,2026-02-02T00:05:33.000Z
30.006506108961062,16.030340467059727,997.9871884365721,0.12017198923032722,-1.057996828406254,4097.950239466835,0.18033869066388744,0.047672894622295944,-0.2665722849289853,0.0,0.0,0.0,0.0,25,500,27993.97947099636,,,,2026-02-02T00:05:34.000Z
30.009839269092062,16.03310758909905,998.0052814546971,0.7766240108468992,-2.1514732968832226,4095.7058852369955,-1.3432093905839007,-1.6465113866019412,-0.4918794548144672,0.0,0.0,0.0,0.0,25,500,27982.38849612802,,,,2026-02-02T00:05:35.000Z
29.990043575927558,15.853028763532624,997.990545933608,2.4990098014123174,-0.8629112891197697,4094.349005606415,-0.9593549606481229,0.4300891561717522,-0.8033419752904754,0.0,0.0,0.0,0.0,25,500,27990.791009688164,,,,2026-02-02T00:05:36.000Z
30.00194607598461,15.984362452264504,998.0106879555516,-2.6655547949592995,-4.240174430240349,4095.357228316694,-1.1819955218978246,-0.8038246482427452,1.8304684749987743,0.0,0.0,0.0,0.0,25,500,28004.258613492086,,,,2026-02-02T00:05:37.000Z
30.003831903853772,16.024847321799708,997.992891651615,-0.6988786544339118,-1.4721273069370284,4096.825862908551,-0.5379439663331403,-1.2167856410814177,2.1719932094942913,0.0,0.0,0.0,0.0,25,500,27999.52247121175,,,,2026-02-02T00:05:38.000Z
29.995998639366974,16.04585508587851,997.985050139024,-1.5451374975124814,-0.6218750327021877,4094.872550894392,-0.1829015674239269,-0.8341590467165808,-0.35370504225558225,0.0,0.0,0.0,0.0,25,500,27997.764098598676,,,,2026-02-02T00:05:39.000Z
30.00464795269444,15.907563655993584,998.0153384510504,0.7583062374522482,1.2197600943808378,4094.3555592088674,-1.165441526221057,0.5425042296645155,0.09171894974836545,0.0,0.0,0.0,0.0,25,500,27992.068970840526,,,,2026-02-02T00:05:40.000Z
30.01231694300434,15.87312020874711,998.0018132367123,2.4604443513015752,-0.07985292674672755,4096.4873744229835,1.4706619906522893,1.2587612397600685,-0.18784282006379097,0.0,0.0,0.0,0.0,25,500,27982.27600989142,,,,2026-02-02T00:05:41.000Z
29.99578230912234,15.976546740748192,998.0086719112576,-1.1939485734421478,1.589846227751118,4096.4899331422175,-1.325281371952441,0.48292994517758675,1.1074992401181563,0.0,0.0,0.0,0.0,25,500,28001.820831132372,,,,2026-02-02T00:05:42.000Z
29.999455756996287,16.19673661110915,997.9914852812125,-4.780608734938876,2.698270210226859,4094.9861136492577,1.3461034238624805,0.6320232236170215,1.305645561840047,0.0,0.0,0.0,0.0,25,500,28003.791601924688,,,,2026-02-02T00:05:43.000Z
29.99179414704146,15.918075248727133,997.9810818946329,-0.8244414900489403,2.1163401876482033,4095.0579233887634,1.1851630314393404,0.47304527283800113,-1.7772637986896467,0.0,0.0,0.0,0.0,25,500,27990.084364399532,,,,2026-02-02T00:05:44.000Z
29.98213010990189,16.117392824735482,998.0167520242409,1.8269474640348131,0.9410196947571136,4096.464099874715,0.8983025496890353,0.10132717686046831,0.4760108000656256,0.0,0.0,0.0,0.0,25,500,27994.665597298364,,,,2026-02-02T00:05:45.000Z
30.007789321805205,16.158473964304513,997.9999357318782,1.0752598058997593,0.02372535836156841,4093.103831317005,-0.6937666074967505,0.6969306349627576,-1.3068213411611485,0.0,0.0,0.0,0.0,25,500,28015.421334540893,,,,2026-02-02T00:05:46.000Z
29.999742662051606,16.00454665262332,998.0049135189416,0.8563724956211523,-1.9615760168271184,4093.185072451247,0.3424508791769014,-2.4187754670694206,1.7582721578752782,0.0,0.0,0.0,0.0,25,500,28011.594979535737,,,,2026-02-02T00:05:47.000Z
30.00047579417153,15.932015206534654,998.006565957806,-0.5599866037489595,1.4798881027586326,4094.563111557495,-1.277371133550618,0.11108835130483316,0.44024803021039804,0.0,0.0,0.0,0.0,25,500,27985.15575438271,,,,2026-02-02T00:05:48.000Z
29.990132263818264,16.051281956365823,997.9966460894699,-2.5580614724395727,3.3594947644430584,4095.5731056965765,0.9109070350337493,-1.0449250346222516,-0.8233495383626361,0.0,0.0,0.0,0.0,25,500,27999.153636127692,,,,2026-02-02T00:05:49.000Z
29.99814496470964,16.01949902920995,998.0022622954762,1.0305886432489348,0.6842120793008364,4096.621815131196,-0.07398478153626888,1.1629025725441393,-0.24132138793785318,0.0,0.0,0.0,0.0,25,500,28014.549556823724,,,,2026-02-02T00:05:50.000Z
30.01096593789182,15.914089601980969,998.0159395259251,-1.6685636200692495,3.834518296852246,4098.950712433899,-0.4093202145866852,-0.1471553052168605,-0.2889772582661584,0.0,0.0,0.0,0.0,25,500,27997.835790026926,,,,2026-02-02T00:05:51.000Z
30.000008213367796,15.934119717362822,997.9996755877112,4.368193466760912,-3.0511434161221676,4097.715319246404,-1.2237448466562693,0.030948088267830184,0.5251129428858157,0.0,0.0,0.0,0.0,25,500,27997.31056811593,,,,2026-02-02T00:05:52.000Z
30.000291837580555,16.045357985214533,998.0094210131642,1.141014416709032,-2.308326769559083,4095.680122940073,-2.477506118629017,-1.5050718742538034,1.0419126041774782,0.0,0.0,0.0,0.0,25,500,28010.92737626743,,,,2026-02-02T00:05:53.000Z
30.002075282778634,16.093344040816856,997.9800875301997,-1.1612966051079021,1.710403015496525,4095.9619675841946,-1.038540857035756,1.0168308890128515,-1.14820729197171,0.0,0.0,0.0,0.0,25,500,28009.870692442753,,,,2026-02-02T00:05:54.000Z
29.987636178715935,15.967720979868462,998.0112376063032,-1.2227704947772564,0.5285804203065021,4093.994941270724,1.1127981956129065,0.6273281202738094,1.8387545009121138,0.0,0.0,0.0,0.0,25,500,28009.353033453805,,,,2026-02-02T00:05:55.000Z
30.006249204641023,15.993086643511194,997.9847799570199,-0.18588841322717656,2.6275643531436153,4095.962973728015,-0.402833428474804,0.5569478823405032,1.6056901078208434,0.0,0.0,0.0,0.0,25,500,27997.38015250826,,,,2026-02-02T00:05:56.000Z
29.98744801885084,16.066863857051107,998.0100940882403,-0.47900384404349955,-0.030943281453479157,4095.4226827221596,-0.1693288571150473,-0.8130228521688223,-0.8753235675910453,0.0,0.0,0.0,0.0,25,500,28006.62888016275,,,,2026-02-02T00:05:57.000Z
29.99060384418721,15.982751311582607,998.0039063122045,2.2336675510599084,-1.7359508450566639,4096.645437120676,0.6555543582884528,-0.7736398449381301,0.07280179436230931,0.0,0.0,0.0,0.0,25,500,28014.94745513955,,,,2026-02-02T00:05:58.000Z
29.989507852309927,15.970067302670412,997.9990407932393,0.37283233948809263,-0.42718648441008494,4094.345538112895,1.805668878116265,0.2235994544459053,1.710808544114316,0.0,0.0,0.0,0.0,25,500,27999.501263015314,,,,2026-02-02T00:05:59.000Z
29.998247750333693,15.924465918027277,997.9990041177879,-1.4632634778170561,-3.065367941847468,4097.038693028482,1.3250046549456387,-0.6944984102480511,1.232918586677483,0.0,0.0,0.0,0.0,25,500,27995.965903786862,,,,2026-02-02T00:06:00.000Z
29.996475472964622,15.922731537662598,997.9974726890664,3.7808813703115653,-2.257181346194069,4099.065477826005,-0.9723350038161881,0.4348929626773385,-0.33674303004789563,0.0,0.0,0.0,0.0,25,500,28012.300726390895,,,,2026-02-02T00:06:01.000Z
29.999987749616917,16.266888275822325,997.9917933048056,0.09861666304044527,1.9448879958360203,4095.782479703086,-1.9425705714374064,-2.160912602766722,0.8143398145678733,0.0,0.0,0.0,0.0,25,500,28020.45439802897,,,,2026-02-02T00:06:02.000Z
29.990947438402234,15.980379833992092,997.9979402372137,1.5376793519377936,1.74557482893922,4096.8034234441975,2.3596142591001037,-0.48754455640659267,2.9971982917191387,0.0,0.0,0.0,0.0,25,500,28021.150048835658,,,,2026-02-02T00:06:03.000Z
30.010054953203063,16.136505832151222,998.0220805907751,-1.2164530148895185,0.7260085696121538,4097.380287983422,2.2689916116594535,1.7967534654264914,0.1051599818512121,0.0,0.0,0.0,0.0,25,500,27996.25488500225,,,,2026-02-02T00:06:04.000Z
30.008340275687264,16.168399333751907,998.0130230671078,0.7262312554890468,-3.442155041920939,4095.1975590562283,0.1884535964292827,0.4394858279957648,-0.6326482514400192,0.0,0.0,0.0,0.0,25,500,27997.25959750503,,,,2026-02-02T00:06:05.000Z
29.998261864871083,15.981641771050684,997.9912899682148,0.6222199822863904,-0.7168071510257771,4096.44818496362,-1.2704882455818216,0.16679366453099267,0.1724198520913992,0.0,0.0,0.0,0.0,25,500,27989.708376668634,,,,2026-02-02T00:06:06.000Z
29.995216332834122,16.036842980843478,998.0026768740232,-3.779298584192306,-2.449999777320101,4096.025184801563,0.9632265338939392,1.9852265356713568,0.24655209549731796,0.0,0.0,0.0,0.0,25,500,28001.180523244147,,,,2026-02-02T00:06:07.000Z
29.994206425066547,16.010247848203303,998.0009597916323,4.03055022092128,2.3530665075755306,4096.195352197097,-0.10798368601261019,-2.335953618801436,-0.5245367390000981,0.0,0.0,0.0,0.0,25,500,27989.258810685424,,,,2026-02-02T00:06:08.000Z
29.99689855004989,15.838781764934133,997.9985770655699,2.5812889218450943,-1.1674442671252026,4094.453980432289,-0.11298112310661049,-0.8153111147881075,0.44162506781421695,0.0,0.0,0.0,0.0,25,500,27994.733665582924,,,,2026-02-02T00:06:09.000Z
29.98599754771249,15.844802698775183,997.9899722244336,-0.7943906322919753,-2.171495421563099,4096.049020348518,0.894458843105129,-0.4011731717473891,-1.2544010597275013,0.0,0.0,0.0,0.0,25,500,28007.011297981622,,,,2026-02-02T00:06:10.000Z
29.99040392687788,16.004884846690427,998.0044589798481,-2.204539480911711,0.05959233024284887,4096.995996582491,0.3343747468732986,0.8583512330053901,-0.6655338670086792,0.0,0.0,0.0,0.0,25,500,28003.899774101395,,,,2026-02-02T00:06:11.000Z
30.00860120391985,15.957508646139141,998.0084607162992,0.6951232276071041,-1.2803089136692236,4098.90228721559,-1.1858149110149452,0.8756563632282364,0.7582447761547977,0.0,0.0,0.0,0.0,25,500,27981.89278694833,,,,2026-02-02T00:06:12.000Z
30.00301812486076,16.18915803383936,997.9916610131494,0.17339539882879318,2.9674878204074138,4097.9185416521705,-0.32474193508197385,-0.8660067089826261,-1.7548708515422513,0.0,0.0,0.0,0.0,25,500,28015.702922982742,,,,2026-02-02T00:06:13.000Z
30.016342744859767,15.976342706130538,998.0195554141729,0.7113378971264588,-1.4696217950683816,4100.306364915024,0.6611529286613466,0.9979543221425496,0.9031675919947765,0.0,0.0,0.0,0.0,25,500,27989.130039128482,,,,2026-02-02T00:06:14.000Z
29.997008048498305,16.19509289970681,998.0152200324924,0.38315479238817923,-2.7984565184492625,4094.465304874224,0.5102522224050186,-0.4033147673217075,-2.011981365705703,0.0,0.0,0.0,0.0,25,500,27990.39066076121,,,,2026-02-02T00:06:15.000Z
29.99638486772893,15.952360860386445,998.0054816555895,1.0124819786118522,-4.305827031515031,4097.744641273442,0.26201657435847575,1.2116396256491668,-1.731324578876315,0.0,0.0,0.0,0.0,25,500,27987.610778482354,,,,2026-02-02T00:06:16.000Z
29.995921010754564,16.191220042060895,997.9876828029733,2.894611398783613,-0.06157300482683039,4096.3666840114765,0.9334229544758642,-1.0326426981220578,-0.4989787430558854,0.0,0.0,0.0,0.0,25,500,27993.38716661436,,,,2026-02-02T00:06:17.000Z
29.99680835516782,16.050642449694735,998.0040140862599,1.1362064102572922,-1.1238602277158527,4100.379605866436,-0.3617169878172646,-0.12331159906616056,0.2868638428193504,0.0,0.0,0.0,0.0,25,500,27991.03193621334,,,,2026-02-02T00:06:18.000Z
29.993400459868536,16.05632918957712,998.0028197800157,-2.0993109978198823,-2.8578092130234536,4094.3834034292895,0.17866977521907204,-0.4901673153765603,1.3252636031273886,0.0,0.0,0.0,0.0,25,500,27991.27566558811,,,,2026-02-02T00:06:19.000Z
30.00270988214687,15.948823604326636,998.0051315527622,2.725125705424904,2.3784529225115705,4094.3205563156384,-3.3755791001776,1.0560303715657138,0.05762276315959555,0.0,0.0,0.0,0.0,25,500,27975.357279482687,,,,2026-02-02T00:06:20.000Z
30.000291040671485,16.05769171804037,998.015904642723,3.2812291269765748,1.3344902948584838,4094.801214709112,-0.4496501938428139,-0.522781216566171,-0.24655360757598987,0.0,0.0,0.0,0.0,25,500,28001.299273920537,,,,2026-02-02T00:06:21.000Z
29.994900854981616,16.169271343308125,997.9982402594538,6.30411346902417,-0.05643575787445955,4091.7522085513806,0.7639029085756444,-0.04244852901175601,0.5795812479848041,0.0,0.0,0.0,0.0,25,500,28002.320651678154,,,,2026-02-02T00:06:22.000Z
30.01251148913019,15.985517250593986,998.0204782657966,-2.246988066479196,2.728652488341733,4094.9484899566387,-0.39039446711714254,0.5068113976630492,-0.8708988204679343,0.0,0.0,0.0,0.0,25,500,28022.44406737892,,,,2026-02-02T00:06:23.000Z
30.018965829224864,15.966060318463338,998.00406504346,0.48576402630055,1.325072066797226,4094.4817346768928,-0.466227391717112,0.5452584830261195,0.1394151593464063,0.0,0.0,0.0,0.0,25,500,28004.863409976657,,,,2026-02-02T00:06:24.000Z
30.011665772055736,15.975323746113991,997.9970953682434,-4.1641974063779745,-1.6457118030368647,4096.300787572953,-1.0414529517748186,0.8869526074731716,-1.19944625795536,0.0,0.0,0.0,0.0,25,500,27995.03410980282,,,,2026-02-02T00:06:25.000Z
30.005581240130834,16.162011160500644,998.0239937720671,1.1062983127584183,-2.078440327981532,4096.6835119515545,1.0033658927291456,0.21112477684466674,0.08259051687541312,0.0,0.0,0.0,0.0,25,500,27987.992850215265,,,,2026-02-02T00:06:26.000Z
30.00761769726264,16.085535120700108,998.0082989190003,-1.0964005963335453,1.6359630889077228,4099.752341678432,0.5484632735405707,-0.4182489152798312,-0.12983632584940336,0.0,0.0,0.0,0.0,25,500,27999.037235402007,,,,2026-02-02T00:06:27.000Z
30.018564155178264,16.14476799904711,997.9954526611305,3.8468915896499065,0.792733912934702,4097.900847676372,0.8254145978230849,-0.34969874535875045,-0.8042679214494173,0.0,0.0,0.0,0.0,25,500,28004.487228893926,,,,2026-02-02T00:06:28.000Z
30.007603193157593,16.031362271048426,998.0008421658895,-1.5492299400371639,0.3394955359413234,4094.8461926886753,-1.7262139619578896,0.02567231520761203,0.16504063653773915,0.0,0.0,0.0,0.0,25,500,27994.96651380681,,,,2026-02-02T00:06:29.000Z
29.994148141474007,16.003931935677784,998.0063523302185,-3.3783660759345233,-1.6929956057378146,4094.2031706573034,-0.16045004326563395,0.24959247607438337,0.1585496531596428,0.0,0.0,0.0,0.0,25,500,28000.610160263484,,,,2026-02-02T00:06:30.000Z
30.003922725266506,16.042394403907064,997.9984913897322,-0.9425274814050393,1.2158951340115078,4096.983838343013,-0.2801110077500062,-0.14717164784843637,1.1754540123391348,0.0,0.0,0.0,0.0,25,500,28018.973540940588,,,,2026-02-02T00:06:31.000Z
30.006262442660635,16.107015853441254,998.0013390786904,-3.950975542434275,-1.5109977662678984,4093.3595335859586,-0.2805717065985525,0.01920342096554723,-1.6056334030627877,0.0,0.0,0.0,0.0,25,500,27996.15889872961,,,,2026-02-02T00:06:32.000Z
29.990052827259642,15.975288175741213,997.9918279639634,1.5021989090146202,-0.20397330918735596,4099.662917531708,-0.6160275437179559,-1.5172538605721053,-0.0760489076970426,0.0,0.0,0.0,0.0,25,500,27981.132244452074,,,,2026-02-02T00:06:33.000Z
29.99715069181357,16.136867699335678,997.9831480546919,-4.130166092512641,2.8938882927739598,4098.358880241442,-0.34610427178001524,0.6673552844546782,-0.7602623997034793,0.0,0.0,0.0,0.0,25,500,28008.734867873914,,,,2026-02-02T00:06:34.000Z
30.011003918240554,16.036583055706586,998.0010641932274,0.05691516236631776,-1.3216684716202916,4095.0616486957906,0.8496447827066518,0.18111228888942987,0.8697620581762918,0.0,0.0,0.0,0.0,25,500,28003.143214458152,,,,2026-02-02T00:06:35.000Z
29.981765072649505,15.759372186196982,998.0014002782223,-4.155623639712394,-3.145978514145722,4092.573730941818,-1.9128513533478293,1.0018704135410883,0.7539120651921329,0.0,0.0,0.0,0.0,25,500,27982.91007988742,,,,2026-02-02T00:06:36.000Z
29.987495714549596,16.08834934271052,998.0052711959156,-0.6405956090732838,-2.1050943837402207,4098.707744748331,1.7772947680304536,0.00016050740708493661,0.507879845068621,0.0,0.0,0.0,0.0,25,500,28004.27643677276,,,,2026-02-02T00:06:37.000Z
29.998235929463718,15.872769498673803,997.994238102929,3.286756311609068,1.9885976533752465,4095.7709203094946,0.4838411250264615,-1.7383975785217862,-0.7038332580694631,0.0,0.0,0.0,0.0,25,500,27990.021364508622,,,,2026-02-02T00:06:38.000Z
30.003536795955057,16.0859172760674,997.9865944570546,0.7212957828715899,0.5094622747604189,4098.475632623947,-0.04233189566021276,-0.35844618930667493,0.8854705829400954,0.0,0.0,0.0,0.0,25,500,28004.413224023643,,,,2026-02-02T00:06:39.000Z
29.986423675550512,16.09015179982382,997.9903467553025,-1.726987209929868,-0.25775475737750714,4092.8111446824114,0.9068341463729263,-0.19992992311841679,-1.5301309287433318,0.0,0.0,0.0,0.0,25,500,28019.07263509204,,,,2026-02-02T00:06:40.000Z
29.99873210748334,16.03298925973812,998.0105563375683,-0.06240697787816795,-1.018187610623139,4094.8012499540923,-1.451834745168435,0.7429033054335988,-1.7353107035927715,0.0,0.0,0.0,0.0,25,500,27998.23030665657,,,,2026-02-02T00:06:41.000Z
30.011537685390884,16.05436808988767,997.993333886878,0.03603374408889317,0.9707198151063802,4096.010487399436,-0.664700905151014,-2.070273544513395,-1.275870999901924,0.0,0.0,0.0,0.0,25,500,28010.832711990366,,,,2026-02-02T00:06:42.000Z
30.00068651457074,16.1098870787844,997.9955791901419,0.9452606916868113,-1.698209701980447,4096.093961187529,-0.12107543239055386,0.04117951694893489,-0.03347481032690589,0.0,0.0,0.0,0.0,25,500,27987.715126821477,,,,2026-02-02T00:06:43.000Z
30.00939088943631,15.950437232618928,997.9968758643616,-2.733716726561653,0.6113311372851918,4095.0998690570414,1.3655603704321775,0.5136752157933061,0.6751644009882938,0.0,0.0,0.0,0.0,25,500,27984.805808536625,,,,2026-02-02T00:06:44.000Z
29.99407885878665,16.07934296597025,997.9938072383071,1.1851345476946613,-1.4625091376259138,4097.245699864695,-0.046496581126557926,-0.6614878852815197,-2.9760324740095245,0.0,0.0,0.0,0.0,25,500,28020.17370472396,,,,2026-02-02T00:06:45.000Z
29.99190083143211,16.116302330295703,997.9930678917246,-5.40878326320555,-1.795318770550108,4093.864759141235,0.45005467118514625,0.07462800981684738,1.3227428318797865,0.0,0.0,0.0,0.0,25,500,28003.078150135563,,,,2026-02-02T00:06:46.000Z
30.00848873830285,16.176008259753846,997.9912887643536,-1.2597691047276207,-1.2749748696500234,4095.7152410299573,-0.5895789959361277,-0.6270365091498445,0.1311121961784342,0.0,0.0,0.0,0.0,25,500,28006.366699411614,,,,2026-02-02T00:06:47.000Z
30.003692655346562,15.889421971394029,998.0140065657457,-0.9765476849030893,-0.7508148929679238,4096.240591263424,0.486842068967491,-0.7295729332203905,-1.5677723475897751,0.0,0.0,0.0,0.0,25,500,28011.520223028452,,,,2026-02-02T00:06:48.000Z
29.988144039922254,16.040851606498777,998.0068010068335,1.266653652142477,-0.09765967186740633,4097.028877668117,1.6772395929744568,-0.40841985013131704,0.10094697028958102,0.0,0.0,0.0,0.0,25,500,27994.72185190202,,,,2026-02-02T00:06:49.000Z
29.99199159083837,15.903851080093853,998.0124782077315,0.04526170535373828,0.47091159022222867,4097.4232297561775,0.9955266916741141,-0.7106919924670108,1.0925254146784196,0.0,0.0,0.0,0.0,25,500,28008.251163597626,,,,2026-02-02T00:06:50.000Z
30.015645812410575,15.89960779822985,998.0144933975646,-2.8111261077125733,-7.376730582856888,4093.7507158163244,-0.08145598777787942,0.6836183119363326,0.5994410153062589,0.0,0.0,0.0,0.0,25,500,28006.73544162309,,,,2026-02-02T00:06:51.000Z
29.99075444780531,16.035902777240597,997.9765012020257,-1.9699862516340303,-1.6153011154935297,4092.9317716585288,0.6754908472654697,-0.7349518768353778,1.099073062553966,0.0,0.0,0.0,0.0,25,500,27987.051951792175,,,,2026-02-02T00:06:52.000Z
30.00934328746726,16.007745581479615,998.0034345464203,0.3973600190948138,-0.7831399547120785,4098.555353643797,0.5775169546072118,-0.9029100070479273,-1.366246629397111,0.0,0.0,0.0,0.0,25,500,28015.129853114126,,,,2026-02-02T00:06:53.000Z
29.995218133027663,16.114500147852198,997.994138213661,-0.15813468372911257,3.01012407721666,4096.664628023959,0.5065876716972757,1.7679286668395335,-0.4140052351384046,0.0,0.0,0.0,0.0,25,500,28013.068605159795,,,,2026-02-02T00:06:54.000Z
29.999968241432327,15.965382355040578,998.0111680964435,-1.158248219271493,-2.1600052167642643,4094.503026926887,1.1119533608604089,0.9607400118240353,-0.9246922305235321,0.0,0.0,0.0,0.0,25,500,27987.162827609623,,,,2026-02-02T00:06:55.000Z
30.002945926209435,15.986594856380298,997.9925852879676,-0.9616675790239587,0.32559323619982505,4099.102303951045,1.1044777038374665,-1.8615133606592003,1.717580205044318,0.0,0.0,0.0,0.0,25,500,28002.00286441462,,,,2026-02-02T00:06:56.000Z
29.978990187895004,16.02115042623382,997.9894585024364,1.392335994318578,2.990060619471675,4096.231349268585,-0.1271585968748843,-0.7647682898525335,0.63936284348663,0.0,0.0,0.0,0.0,25,500,27997.68920263087,,,,2026-02-02T00:06:57.000Z
29.985372826645726,15.913817114856354,997.9856595413935,-1.0353851457384293,-2.6259370598945457,4098.358594368127,0.6418790614777692,0.2424629717227108,2.847009588957641,0.0,0.0,0.0,0.0,25,500,28014.18307469926,,,,2026-02-02T00:06:58.000Z
30.000863330187872,15.927693015498408,997.9969732508902,-0.17618248805814657,0.7879504517288047,4096.13503696282,-0.38309492115979377,0.3237550672314934,-0.46760953341722744,0.0,0.0,0.0,0.0,25,500,27985.893879938812,,,,2026-02-02T00:06:59.000Z
29.992756924362162,16.111609866577254,998.0091494526253,4.339873176161086,-1.6045436678690408,4100.121495849764,-0.9230723963155776,-1.4904928657368934,-0.7246742116823047,0.0,0.0,0.0,0.0,25,500,28036.024150242105,,,,2026-02-02T00:07:00.000Z
30.009965812952746,15.94510449587189,998.0025616721687,-2.847365273767846,-1.009267484578469,4099.510681684887,-0.2694937557039864,1.158565492822322,-0.14282663859515055,0.0,0.0,0.0,0.0,25,500,27998.25515830628,,,,2026-02-02T00:07:01.000Z
29.983938791191317,16.118247656644968,997.9879735173487,-3.7036854631493172,-1.606221667906629,4095.502071703042,-0.07627815173958268,0.8252244191816259,1.378357221422549,0.0,0.0,0.0,0.0,25,500,28007.384451661812,,,,2026-02-02T00:07:02.000Z
30.00565255056258,16.06073125806683,998.0215265909036,1.5671793295972134,-1.4637146168317718,4097.943141901908,-1.661580989177992,0.48190163204033865,-0.36611968937534733,0.0,0.0,0.0,0.0,25,500,28013.874983320027,,,,2026-02-02T00:07:03.000Z
29.986237787795957,15.845246897451107,998.0064953863949,-1.3572861225882065,5.443824295812986,4097.290751899171,0.8603325594167204,1.356728490712121,0.12443759790694424,0.0,0.0,0.0,0.0,25,500,27998.0400065683,,,,2026-02-02T00:07:04.000Z
29.996478950058556,16.05303786918378,998.0077741011576,-0.6364750554852405,1.6889117441433315,4098.737263115065,-2.767325422602398,0.45228999257091806,0.09669070288681957,0.0,0.0,0.0,0.0,25,500,27998.85058114405,,,,2026-02-02T00:07:05.000Z
29.98935622235762,16.052247982309414,998.0128502882735,-1.5623127562622283,2.203475723572418,4094.0701530788397,2.7148169394863215,0.44858087925184725,0.03949676120218946,0.0,0.0,0.0,0.0,25,500,27994.971691061815,,,,2026-02-02T00:07:06.000Z
30.019024298804712,16.042292860851127,997.9835978441138,-0.519600281535025,0.9839869736729923,4097.372102919997,1.5018791337963189,1.5576792718222423,-0.652398460462478,0.0,0.0,0.0,0.0,25,500,27991.145343738688,,,,2026-02-02T00:07:07.000Z
29.9866050783703,15.9858123273617,997.9908856586142,3.1970762241926827,-3.212513576803916,4098.116848973699,-0.2610087241723136,1.1012195807277088,-0.13729106791036658,0.0,0.0,0.0,0.0,25,500,28002.718591477926,,,,2026-02-02T00:07:08.000Z
29.99877940304631,15.905993254460816,998.0082301135692,1.6042569172362386,0.7899159406466143,4092.482521027154,0.009426360563773238,-0.8415074589115312,-0.18010260135135786,0.0,0.0,0.0,0.0,25,500,27998.64733319825,,,,2026-02-02T00:07:09.000Z
29.982731638519798,16.134621276611263,997.9918926167198,1.7244470237739542,2.145859229014693,4093.6334829746684,0.30297187358728317,0.6331951786719153,-0.007564659674649148,0.0,0.0,0.0,0.0,25,500,27994.906258016745,,,,2026-02-02T00:07:10.000Z
30.015995701220707,15.989842041127716,997.9972498652775,-2.832454111585291,-1.7067989480782229,4091.9215356444797,-0.589160387988942,-0.664267864958582,0.9435168181527083,0.0,0.0,0.0,0.0,25,500,27995.490360519663,,,,2026-02-02T00:07:11.000Z
30.004012824161773,15.911659383966462,997.9992225934717,-2.3023074731057385,1.9306533343222532,4095.461186331111,0.19261914758693635,0.504154550950278,1.7606280346244925,0.0,0.0,0.0,0.0,25,500,28005.762334538933,,,,2026-02-02T00:07:12.000Z
30.001369730895988,16.045746868608802,997.9872259461137,-5.678157318970854,1.4086724197081577,4097.435084511592,-0.1439999777016611,0.4766135070198144,-0.8404347626697068,0.0,0.0,0.0,0.0,25,500,27992.024364706496,,,,2026-02-02T00:07:13.000Z
30.01474312939292,15.925722002926674,997.9963918281786,-1.618761642165508,3.70408008962734,4099.004714104192,-0.09427271723096599,-1.383467312455986,-0.39199362478771504,0.0,0.0,0.0,0.0,25,500,27997.530352316076,,,,2026-02-02T00:07:14.000Z
30.001474224414228,15.905091397171487,998.0091450321735,1.9134063727713169,-0.8355660250272376,4096.1481895608395,0.18146106348063867,-0.12184561131103523,-0.8250118984061866,0.0,0.0,0.0,0.0,25,500,28008.98667391789,,,,2026-02-02T00:07:15.000Z
30.00219571356141,15.962452738779756,998.0072945388981,1.0338930314967418,-2.1952219645514535,4099.257231091143,-1.3135277983539944,0.26525702358040226,0.18710153722227268,0.0,0.0,0.0,0.0,25,500,28002.472254700693,,,,2026-02-02T00:07:16.000Z
30.00131725288065,15.933460223568192,998.0111301466196,-0.4430265259042478,-0.7232562187450913,4093.23979708357,0.039569724133648135,-0.43629019099415695,-0.5383494575109768,0.0,0.0,0.0,0.0,25,500,27989.504407336415,,,,2026-02-02T00:07:17.000Z
30.00563634325443,15.908775774801542,998.0100987587379,-0.0446005674361061,2.8711419863272467,4092.5932351212896,0.16344774661747724,0.3147099423907597,0.2397968337419887,0.0,0.0,0.0,0.0,25,500,27999.76128931253,,,,2026-02-02T00:07:18.000Z
29.995075586160787,16.080641176226177,998.0040587392571,-1.3777710851508111,-3.656811761683926,4095.888904602207,0.1288496213559143,0.8058977770010688,1.103626910444787,0.0,0.0,0.0,0.0,25,500,28004.37021621143,,,,2026-02-02T00:07:19.000Z
29.997857126926366,15.98861721855376,998.0032667849831,0.40951776480356833,-4.1367514308620645,4096.768130897879,-0.21583075543615446,-0.030593064230755616,-2.5258316858046084,0.0,0.0,0.0,0.0,25,500,28009.89272191236,,,,2026-02-02T00:07:20.000Z
30.008103346284575,16.12522799455159,998.0025333076011,1.5317565589612296,0.17879055786322653,4095.9346105038117,1.1378577759693718,0.2245994767082595,0.4917798896006909,0.0,0.0,0.0,0.0,25,500,27992.44621333255,,,,2026-02-02T00:07:21.000Z
30.002773729515578,15.914549052227006,997.9937295283274,-3.2317735748209455,-0.8851785855483123,4091.86511579992,-0.3536525548815512,1.383424078555975,-0.4601870488978789,0.0,0.0,0.0,0.0,25,500,27994.41470277299,,,,2026-02-02T00:07:22.000Z
29.99885756085898,15.827243896236366,997.9897005527628,0.5992953756746963,0.015455786351369287,4095.8217599209743,0.22732590682319032,0.4731965832252261,0.46042226798438896,0.0,0.0,0.0,0.0,25,500,27993.0484001128,,,,2026-02-02T00:07:23.000Z
29.985994776089694,16.014877034924943,997.9931040265388,1.8648697419093345,1.8906235424717304,4093.3910609989903,1.2972975339255457,0.20082428967447366,-0.8964694377502004,0.0,0.0,0.0,0.0,25,500,27993.54479800608,,,,2026-02-02T00:07:24.000Z
30.014980502845365,16.185597892180642,997.9967397068344,-0.8302005779267392,-1.105138692237705,4097.33934509766,-0.07937614002031229,-0.9580793796413607,1.196260988306875,0.0,0.0,0.0,0.0,25,500,28004.050047156972,,,,2026-02-02T00:07:25.000Z
29.99338545890049,16.0530986829362,997.9934417405526,1.4014012242411673,-3.746011661861241,4096.733196492194,0.21446326746755132,0.6710260113888488,0.9132806180402842,0.0,0.0,0.0,0.0,25,500,28005.944891298837,,,,2026-02-02T00:07:26.000Z
30.009872372384194,16.321537419621283,998.0041383173848,5.629308888945106,4.088963114399888,4094.1202404273454,-0.0963846363148971,0.33014994939193854,0.5683521485426429,0.0,0.0,0.0,0.0,25,500,28010.50903492883,,,,2026-02-02T00:07:27.000Z
30.00175753651688,16.03320591209491,998.0020189521606,-0.20868558597378384,-1.9944565748775522,4094.972266165327,1.2373697935635992,1.283739433701408,0.7932257178100984,0.0,0.0,0.0,0.0,25,500,27999.08825090924,,,,2026-02-02T00:07:28.000Z
29.9870654947727,16.02355522112881,998.0030932349872,0.7866141000106472,-2.118074244024195,4093.881572956222,-0.25772456158629525,0.04687854330331131,-0.7456204671721736,0.0,0.0,0.0,0.0,25,500,27985.946770452207,,,,2026-02-02T00:07:29.000Z
30.012522754775308,15.784463732894208,998.0035140806591,-1.476114167322783,2.207440027445193,4095.874641805454,1.2833545772882056,-1.8162665001339957,-0.6196237546892899,0.0,0.0,0.0,0.0,25,500,28006.694701644574,,,,2026-02-02T00:07:30.000Z
30.002545406463994,16.042794744058853,998.0119566393779,0.3625023252041008,-0.7689782420830359,4097.910284641002,-0.1035878946470647,-1.7001208688282619,0.7524362008174793,0.0,0.0,0.0,0.0,25,500,28001.591436784074,,,,2026-02-02T00:07:31.000Z
30.01335345356737,16.01686677600193,997.9999142710761,0.9205432499646077,-0.12677970406962155,4094.028547907329,-0.8594597234480168,0.7356807637597333,-0.767729142768612,0.0,0.0,0.0,0.0,25,500,28000.59969479316,,,,2026-02-02T00:07:32.000Z
29.99817591299264,15.959257880179546,998.0100836943384,0.3896846805402761,0.9655802481206359,4097.008093031036,0.679373170574121,-0.5701935976981533,1.445635046658087,0.0,0.0,0.0,0.0,25,500,27987.16596511689,,,,2026-02-02T00:07:33.000Z
30.00704051229967,15.986322113294094,998.0051658535798,-2.0393906394177135,2.1671662062199912,4094.939484763255,-0.30466783375565604,0.4367677511104973,-0.3235910712810316,0.0,0.0,0.0,0.0,25,500,27998.041641363947,,,,2026-02-02T00:07:34.000Z
29.98237472888655,15.993189942565783,998.0112963353663,0.4127235426509014,-0.6669213863635439,4094.414254335475,0.6205008990991628,0.11423264450235611,0.501894389860622,0.0,0.0,0.0,0.0,25,500,27988.063452138744,,,,2026-02-02T00:07:35.000Z
29.99499784136406,15.982007084706794,998.0161462983439,2.9243918774352737,3.0399040118285985,4095.785939280091,-2.729404384923734,-0.16683966769392072,2.09924951925509,0.0,0.0,0.0,0.0,25,500,28004.81964988446,,,,2026-02-02T00:07:36.000Z
29.987270066677688,16.208971496312596,998.0057664957998,0.8972715290290546,-4.271599697469611,4093.929515355161,0.005205261894946381,-0.09636128558822336,-0.7062233540680766,0.0,0.0,0.0,0.0,25,500,27995.701059712963,,,,2026-02-02T00:07:37.000Z
29.996252161499616,15.9629137972195,998.0010376824968,1.923974378143682,1.5195744739061543,4094.892701389306,-0.4596052987574804,-0.8653895050452268,0.06876175084478278,0.0,0.0,0.0,0.0,25,500,27994.804656036355,,,,2026-02-02T00:07:38.000Z
30.00471811739506,16.016931372385386,998.0009730781744,-0.47402394002525544,-1.6790551160353147,4093.6042442148223,-1.063258686531278,-0.015777688899670742,1.0541831646373074,0.0,0.0,0.0,0.0,25,500,27984.62844516911,,,,2026-02-02T00:07:39.000Z
29.993954199123458,15.95960989166138,997.9952983392044,1.499800478847421,2.744542633215983,4099.929450265833,-0.5532410018397994,-0.5844934327943987,0.9512773888765313,0.0,0.0,0.0,0.0,25,500,28010.27095869684,,,,2026-02-02T00:07:40.000Z
30.00863842093639,16.07834311866439,997.9949622785342,0.5585356764330519,0.2840889576610905,4096.070527103943,-0.5737031442926516,-0.3722565201257048,-0.3278153102393581,0.0,0.0,0.0,0.0,25,500,27997.414353687705,,,,2026-02-02T00:07:41.000Z
29.9914338735645,16.017676369997222,998.0090211716331,-1.901821459374464,-1.3458106640188032,4094.600548984015,-0.04798579485058113,-0.32364904470916106,-0.516730437521854,0.0,0.0,0.0,0.0,25,500,28000.869807703377,,,,2026-02-02T00:07:42.000Z
30.008852366136498,15.972008942682951,997.9903632970755,0.6370420095977489,1.325682186043265,4096.427959821468,-1.3673264612849558,-0.22669326989871927,-0.23313593254505174,0.0,0.0,0.0,0.0,25,500,27992.645099093075,,,,2026-02-02T00:07:43.000Z
30.01309757165874,15.807403205409281,998.0161477263556,-1.983393326880621,1.7863766944145032,4095.7753439006183,0.3162737802597137,0.9221734565070863,1.4478577661513639,0.0,0.0,0.0,0.0,25,500,27983.494249400334,,,,2026-02-02T00:07:44.000Z
30.01013526135091,16.024330822528874,997.9984827674709,-1.2657605497695839,1.2837882457172765,4095.5580608009336,1.366214785205788,-0.12979082920469348,-0.27910585635994656,0.0,0.0,0.0,0.0,25,500,27994.68374411823,,,,2026-02-02T00:07:45.000Z
29.996558109481704,15.969042372642026,998.0286207789312,0.37865661458474825,-2.059392479266121,4097.228333400087,0.28092849694782634,1.0237023365900986,0.07811569248346499,0.0,0.0,0.0,0.0,25,500,27996.284586622274,,,,2026-02-02T00:07:46.000Z
29.97874546402056,15.99392593431129,997.9930688457317,0.5944885467602481,-0.9680342472441695,4097.515015420095,0.808988609229009,1.5378549513264816,-0.4267864709234251,0.0,0.0,0.0,0.0,25,500,28002.92760020915,,,,2026-02-02T00:07:47.000Z
30.005821669967375,15.881754205275467,998.0025018891998,-2.378464930154258,-0.00814567424287005,4094.938997704779,1.0945624546137955,0.8549446510561495,0.7055485647959867,0.0,0.0,0.0,0.0,25,500,27996.44967589111,,,,2026-02-02T00:07:48.000Z
29.998747652852845,16.14332821727202,997.9964815072975,2.1079715423657523,-0.0825193053001208,4094.848363518711,1.2364895121841768,0.5344685350685111,0.15552503758365635,0.0,0.0,0.0,0.0,25,500,27992.816511403027,,,,2026-02-02T00:07:49.000Z
29.990216070598727,16.085674317584388,997.9920691590846,1.1440125566009458,1.4994909508766954,4095.4498966056967,1.8701386928213053,0.32683220948352026,-1.003433810758229,0.0,0.0,0.0,0.0,25,500,27984.966606028578,,,,2026-02-02T00:07:50.000Z
29.994437209351297,16.143070599764062,998.0106380035088,-1.4094568712217677,-4.0298024650132165,4091.3961576705287,-0.49920199827593026,0.86535870905007,-0.9688241140349944,0.0,0.0,0.0,0.0,25,500,28000.484534954227,,,,2026-02-02T00:07:51.000Z
30.01434425316445,16.114697930078094,997.988944458056,-3.0751695928983507,0.6686541091070068,4092.969617875603,-0.7184839851611164,0.0893607385962395,-1.998605566555507,0.0,0.0,0.0,0.0,25,500,27992.034398062293,,,,2026-02-02T00:07:52.000Z
29.9886265979939,16.059231730212748,997.9932392549302,-0.2898091581628626,-0.5799627088732798,4098.733748534889,0.7834656483247346,0.9845698459571985,-0.8313214091256161,0.0,0.0,0.0,0.0,25,500,28013.208065337658,,,,2026-02-02T00:07:53.000Z
30.004683091756213,15.885771749127356,998.0058631970892,-0.8918874277223203,-1.6770012327679045,4099.289935427003,0.7082662196573998,0.6141058052896843,0.7939458036321722,0.0,0.0,0.0,0.0,25,500,28001.50146661338,,,,2026-02-02T00:07:54.000Z
30.002179581756373,16.184338716407186,998.0074496081095,0.22628091410604562,-1.4849735555391992,4095.5019279208873,0.7756752996156893,-0.35984046078038784,1.323760538012268,0.0,0.0,0.0,0.0,25,500,28005.62102840033,,,,2026-02-02T00:07:55.000Z
29.996426123353366,15.907236484911248,997.9860811457877,-0.726233322311133,-0.4290753290359272,4097.1531139261115,1.889282454250252,0.8958508801028059,0.685558363217184,0.0,0.0,0.0,0.0,25,500,27997.512113337107,,,,2026-02-02T00:07:56.000Z
30.00644532687313,15.973159237592505,998.0058167688521,-4.01491372149002,-7.202170208919036,4096.622500309087,0.011369908798494166,0.09148000597756854,0.5546322006406813,0.0,0.0,0.0,0.0,25,500,28002.01280289768,,,,2026-02-02T00:07:57.000Z
30.016322452588987,16.07069022806269,998.0012889991342,-0.7766938766023168,-1.4025791415831,4102.157761616911,0.4261565596461849,-0.10613200761231605,-0.12652604952864957,0.0,0.0,0.0,0.0,25,500,27991.092846842297,,,,2026-02-02T00:07:58.000Z
29.997040284961138,16.075654078718742,997.9908227664214,-0.6112382221366259,-1.7516296492925867,4098.239149822869,-0.9803882514834749,-0.4761991603989872,0.774914554913987,0.0,0.0,0.0,0.0,25,500,27988.217811743303,,,,2026-02-02T00:07:59.000Z
29.997568190519228,16.057223672694455,997.9921111846467,1.2673220495481174,1.0655664186452485,4095.7441648170384,2.1353211239759577,0.16601884787457225,0.2862782230818843,0.0,0.0,0.0,0.0,25,500,28000.151310773486,,,,2026-02-02T00:08:00.000Z
30.0062206490499,15.95997115186709,997.9796654857205,-1.3963993492220994,-1.611053365021041,4094.0889191187994,-0.336544921209111,0.9964626154129835,1.8044489719871246,0.0,0.0,0.0,0.0,25,500,28005.70391655201,,,,2026-02-02T00:08:01.000Z
30.00918242821435,15.939306837264452,998.017174444278,3.3573493467451323,-0.4302276003409798,4092.7871073594847,-0.30821592816082993,0.8889400055930373,-0.09844531417674846,0.0,0.0,0.0,0.0,25,500,27980.541882299385,,,,2026-02-02T00:08:02.000Z
29.998722927928515,16.253453256860613,998.0101542041498,-3.823281101303514,3.084553255322604,4096.406927271734,-0.3467498910082427,0.35339379745895677,1.3430080837361311,0.0,0.0,0.0,0.0,25,500,27995.008965091958,,,,2026-02-02T00:08:03.000Z
29.996946262639064,15.996068606150017,997.9871085498983,2.622334995605249,1.988703039630847,4094.487298509431,-0.6448958586443377,0.5996436407250353,0.8741140818178601,0.0,0.0,0.0,0.0,25,500,28018.421221078883,,,,2026-02-02T00:08:04.000Z
29.9778235347928,15.983822861536117,998.0079890767279,-0.4486379417562096,1.8045427998869052,4093.1554925808045,-0.7294370488476493,1.2716967915225579,0.7354432862041588,0.0,0.0,0.0,0.0,25,500,28004.7922755167,,,,2026-02-02T00:08:05.000Z
29.992219910876333,15.928644350906124,997.9942597765605,1.7191697446871124,-0.9997448608217036,4094.706854231515,-0.5237042828895252,-0.14996629117086105,-2.01149132546182,0.0,0.0,0.0,0.0,25,500,28015.376460336905,,,,2026-02-02T00:08:06.000Z
29.988606883279324,16.024467034907097,998.0091481053635,0.1596029681174662,1.0860645585793047,4093.836903992771,-1.3657959280509446,-1.1154200035302062,0.9291895615477108,0.0,0.0,0.0,0.0,25,500,27993.659550482113,,,,2026-02-02T00:08:07.000Z
30.006846249963118,16.019802280057807,997.9950392643084,2.2791110720509384,-0.4677956009071879,4099.3742832701455,-0.7853179202632383,1.3011298521785726,-0.12750797890915333,0.0,0.0,0.0,0.0,25,500,27995.420942350054,,,,2026-02-02T00:08:08.000Z
29.99756097051399,15.99837737912957,997.9963664590489,-0.7747239291056225,-0.39218642135387577,4097.763279513899,1.9489631114476191,-0.5297782520307184,-0.44392649443489174,0.0,0.0,0.0,0.0,25,500,28009.667333203444,,,,2026-02-02T00:08:09.000Z
29.99716978394461,16.03817266467879,997.9971165273224,-2.1972408503556244,0.8193706874930994,4095.9840547173667,0.7356551436413686,-0.6903381233439047,-1.4829130411779132,0.0,0.0,0.0,0.0,25,500,28006.235203553784,,,,2026-02-02T00:08:10.000Z
29.99990943736377,16.176353750244235,997.9934264465834,2.8410085745421263,-1.1939871768418648,4098.95988827778,0.925904176727718,-1.7961977553345514,-0.005587133968183114,0.0,0.0,0.0,0.0,25,500,27999.056154239403,,,,2026-02-02T00:08:11.000Z
29.991298235298746,15.94049472937091,998.0139927137524,-0.22696129176428237,2.986006208886407,4096.154736615295,1.1772087874169148,0.5712830531642964,0.03355159681824261,0.0,0.0,0.0,0.0,25,500,27987.374841907316,,,,2026-02-02T00:08:12.000Z
30.015532471866887,16.004308374220212,998.0089852699308,0.4431169472484212,-0.3202602791958743,4094.2774315973434,1.8341345643623908,-1.6214526245522214,-1.3030019218148046,0.0,0.0,0.0,0.0,25,500,28011.56851962227,,,,2026-02-02T00:08:13.000Z
30.012981939116965,15.935215154744945,998.0010994853833,2.4695038280895902,1.23672113251933,4099.046248154539,-1.771422551443844,-0.7502588076917368,-1.473280172893692,0.0,0.0,0.0,0.0,25,500,28025.102281475276,,,,2026-02-02T00:08:14.000Z
30.016181067830477,16.029469836082562,998.0102456816398,-2.06391048418887,2.911200958514596,4097.077820087369,-1.2298831152865406,0.5882367945150587,0.4866194801281112,0.0,0.0,0.0,0.0,25,500,27984.28133811703,,,,2026-02-02T00:08:15.000Z
30.006834172312388,15.943153049862557,997.9837292828475,1.1909817952785147,2.06330754915035,4093.925507691347,-0.8037236608946853,0.721921252408372,0.871705131061377,0.0,0.0,0.0,0.0,25,500,28014.036191497493,,,,2026-02-02T00:08:16.000Z
