timestamp,temperature_temperature,humidity_humidity,pressure_pressure,accelerometer_Ax,accelerometer_Ay,accelerometer_Az,gyroscope_x,gyroscope_y,gyroscope_z,led_R,led_G,led_B,quaternion_x,quaternion_y,quaternion_z,quaternion_w,bsec_bsec,co2_co2,gas_gas
2026-02-16T17:07:40.147Z,37.86000061035156,19,993.3377685546875,-3594,-1466,1142,17,5,-40,,,,-0.5863632559776306,0.05889877304434776,0.717954695224762,0.3702993392944336,32,516,123688
2026-02-16T17:07:40.127Z,37.73999786376953,19,993.3377685546875,-3630,-1566,1241,55,-58,-39,,,,-0.5874008536338806,0.05859360098838806,0.718198835849762,0.3682241439819336,32,516,122489
2026-02-16T17:07:40.107Z,37.599998474121094,19,993.3533935546875,-3631,-1275,1256,71,-28,-30,,,,-0.5913071036338806,0.05407701060175896,0.722654402256012,0.35375887155532837,25,500,122829
2026-02-16T17:07:40.087Z,37.599998474121094,19,993.3533935546875,-3598,-1313,1173,43,-19,21,,,,-0.5926498770713806,0.052856311202049255,0.722166121006012,0.35272127389907837,25,500,124297
2026-02-16T17:07:40.067Z,37.5099983215332,19,993.3767700195312,-3632,-1426,1179,-15,0,0,,,,-0.5927109122276306,0.051879748702049255,0.722532331943512,0.35186678171157837,25,500,124209
2026-02-16T17:07:40.047Z,37.47999954223633,19,993.3533935546875,-3554,-1390,1179,-2,28,6,,,,-0.5934432744979858,0.052184924483299255,0.722593367099762,0.35046297311782837,25,500,124735
2026-02-16T17:07:40.027Z,37.39999771118164,19,993.3533935546875,-3689,-1490,1255,37,7,-2,,,,-0.5902695059776306,0.050414908677339554,0.725400984287262,0.35021883249282837,16,481,125176
2026-02-16T17:07:40.007Z,37.369998931884766,19,993.3377685546875,-3616,-1391,1243,50,-49,-41,,,,-0.5952132940292358,0.04815661534667015,0.724485456943512,0.34411531686782837,16,481,123775
2026-02-16T17:07:39.987Z,37.369998931884766,19,993.3377685546875,-3581,-1365,1254,17,-37,-16,,,,-0.5970443487167358,0.04882799834012985,0.723997175693512,0.34185704588890076,16,481,126429
2026-02-16T17:07:39.967Z,37.18000030517578,19,993.3065795898438,-3775,-1386,1197,62,-35,-54,,,,-0.5985702276229858,0.04705798625946045,0.725462019443512,0.33630284667015076,16,467,129011
2026-02-16T17:07:39.947Z,37.119998931884766,19,993.3143920898438,-3728,-1300,1238,43,-115,-19,,,,-0.6011947393417358,0.04675281047821045,0.724180281162262,0.33434972167015076,9,467,129483
2026-02-16T17:07:39.927Z,37.05999755859375,19,993.283203125,-3777,-1282,1188,8,-206,-46,,,,-0.6057113409042358,0.04827868565917015,0.720884382724762,0.33319005370140076,9,467,130535
2026-02-16T17:07:39.907Z,37.05999755859375,19,993.283203125,-3775,-1272,1164,-47,-232,-87,,,,-0.6091293096542358,0.051147330552339554,0.718198835849762,0.33233556151390076,9,471,131407
2026-02-16T17:07:39.887Z,37.13999938964844,19,993.3065795898438,-3600,-1214,1074,-135,-246,-77,,,,-0.6146835088729858,0.05944808945059776,0.713071882724762,0.33178624510765076,11,471,130728
2026-02-16T17:07:39.867Z,37.07999801635742,19,993.3065795898438,-4003,-1947,577,741,-206,155,,,,-0.6395247578620911,0.052245959639549255,0.7030621767044067,0.3063957095146179,11,471,129011
2026-02-16T17:07:39.847Z,37.11000061035156,19,993.283203125,-4378,-2439,243,1295,-428,26,,,,-0.6571638584136963,0.02929680049419403,0.6965314149856567,0.2863762080669403,6,460,128449
2026-02-16T17:07:39.827Z,36.869998931884766,19,993.283203125,-3533,-1373,-251,2221,-765,-744,,,,-0.714231550693512,-0.01916499063372612,0.6721174120903015,0.1939081996679306,6,460,129483
2026-02-16T17:07:39.807Z,36.880001068115234,19,993.3065795898438,-3540,-813,-163,1986,-508,-640,,,,-0.7363262176513672,-0.041442763060331345,0.6603376865386963,0.14123499393463135,6,459,126249
2026-02-16T17:07:39.787Z,36.86000061035156,19,993.283203125,-3271,-52,-113,1293,386,-900,,,,-0.7507305145263672,-0.07348614186048508,0.6561872959136963,0.01824946515262127,6,459,128170
2026-02-16T17:07:39.767Z,36.689998626708984,19,993.267578125,-3640,-647,-640,534,163,289,,,,0.7338848114013672,0.11584442853927612,-0.6685773730278015,0.02929680049419403,0,448,126610
2026-02-16T17:07:39.747Z,36.599998474121094,19,993.2442016601562,-4013,-607,-420,405,212,500,,,,0.720823347568512,0.15411336719989777,-0.6746198534965515,0.03771962970495224,0,433,128449
2026-02-16T17:07:39.727Z,36.46999740600586,19,993.267578125,-4598,-1017,-264,638,-7,477,,,,0.714658796787262,0.178527370095253,-0.6750470995903015,0.03967275097966194,0,400,130055
2026-02-16T17:07:39.707Z,36,19,993.283203125,-4201,87,-81,746,-15,-460,,,,0.712949812412262,0.20080514252185822,-0.6680890917778015,0.06982403993606567,0,400,130631
2026-02-16T17:07:39.687Z,36.529998779296875,19,993.267578125,-4019,1164,992,-230,-88,-384,,,,0.715635359287262,0.20477242767810822,-0.6612532138824463,0.0923459529876709,0,400,129294
2026-02-16T17:07:39.667Z,36.56999969482422,20,993.2442016601562,-3946,18,886,-1935,-448,-78,,,,0.7368144989013672,0.16888384521007538,-0.6525251865386963,0.052306994795799255,0,400,127615
2026-02-16T17:07:39.647Z,36.46999740600586,20,993.2442016601562,-3452,-465,294,-2615,-312,-136,,,,-0.7493267059326172,-0.11096163094043732,0.6527082920074463,0.007080059964209795,0,400,128729
2026-02-16T17:07:39.627Z,36.39999771118164,19,993.2442016601562,-3424,-2116,-537,-2778,89,270,,,,-0.7439556121826172,0.00042724498780444264,0.6538679599761963,0.13738977909088135,0,400,128263
2026-02-16T17:07:39.607Z,36.13999938964844,19,993.2052001953125,-3986,-2773,-599,-1996,4,496,,,,-0.730100691318512,0.04113759100437164,0.6527082920074463,0.1977533996105194,0,400,131799
2026-02-16T17:07:39.587Z,36.34000015258789,19,993.2442016601562,-4151,-1945,-756,-183,-328,165,,,,-0.725217878818512,0.07781962305307388,0.6355574727058411,0.25280696153640747,0,400,131310
2026-02-16T17:07:39.567Z,36.349998474121094,19,993.2442016601562,-3760,-1357,-552,126,-326,197,,,,-0.731077253818512,0.07788065820932388,0.6281111836433411,0.25457698106765747,0,400,129959
2026-02-16T17:07:39.547Z,36.2599983215332,19,993.2442016601562,-3438,-1336,-745,301,-321,457,,,,-0.7411479949951172,0.06811506301164627,0.6173079609870911,0.25476008653640747,0,400,129105
2026-02-16T17:07:39.527Z,36.369998931884766,19,993.2207641601562,-3421,-1841,-1001,771,99,558,,,,-0.7519512176513672,0.02844231016933918,0.6090682744979858,0.25036555528640747,0,400,133996
2026-02-16T17:07:39.507Z,36.22999954223633,19,993.2052001953125,-3905,-2179,-670,1088,237,465,,,,-0.7554912567138672,-0.00469969492405653,0.6105331182479858,0.23754821717739105,0,400,134097
2026-02-16T17:07:39.487Z,36.290000915527344,19,993.2052001953125,-4039,-807,292,856,115,164,,,,-0.7628764510154724,-0.06579572707414627,0.6135848760604858,0.1925043910741806,0,400,133793
2026-02-16T17:07:39.467Z,36.41999816894531,19,993.2207641601562,-3999,-410,718,153,15,45,,,,-0.7648295760154724,-0.07928446680307388,0.6128524541854858,0.181823268532753,0,400,133996
2026-02-16T17:07:39.447Z,36.45000076293945,19,993.2442016601562,-4044,-1025,398,-750,-134,-130,,,,-0.7655009627342224,-0.07495097815990448,0.6104720830917358,0.1887202262878418,0,400,132292
2026-02-16T17:07:39.427Z,36.46999740600586,18,993.2052001953125,-3759,-1535,396,-1133,-363,-257,,,,-0.7650126814842224,-0.043884165585041046,0.6066879034042358,0.21130317449569702,0,400,134505
2026-02-16T17:07:39.407Z,36.38999938964844,18,993.2207641601562,-3520,-3362,-2454,-46,-490,51,,,,-0.7662333846092224,0.03820791095495224,0.5756210684776306,0.2828972339630127,0,400,135329
2026-02-16T17:07:39.387Z,36.48999786376953,18,993.2052001953125,-3605,-3199,-2807,1163,-139,-227,,,,-0.7752055525779724,0.03472891449928284,0.5719589591026306,0.2657463848590851,0,400,134097
2026-02-16T17:07:39.367Z,36.529998779296875,18,993.2442016601562,-3668,-2221,-1953,2111,151,-466,,,,-0.7847269773483276,0.016906695440411568,0.5776352286338806,0.22381535172462463,0,400,133591
2026-02-16T17:07:39.347Z,36.65999984741211,18,993.2052001953125,-3820,-114,-104,2054,136,-373,,,,-0.7944315671920776,-0.013671839609742165,0.5858749747276306,0.15917928516864777,0,400,133490
2026-02-16T17:07:39.327Z,36.95000076293945,18,993.283203125,-4044,717,-5,1253,-190,-411,,,,-0.8034036755561829,-0.03662100061774254,0.5844101309776306,0.10790988057851791,0,400,131310
2026-02-16T17:07:39.307Z,36.95000076293945,18,993.267578125,-3294,767,-657,-582,56,55,,,,-0.8121927380561829,-0.03521719574928284,0.5758041739463806,0.08636452257633209,0,400,131701
2026-02-16T17:07:39.287Z,36.939998626708984,18,993.267578125,-3327,-2012,-1537,-1653,742,568,,,,-0.7871683835983276,-0.011657685041427612,0.5913071036338806,0.17456009984016418,0,400,129200
2026-02-16T17:07:39.267Z,36.93000030517578,18,993.3065795898438,-3536,-1852,-975,-913,621,397,,,,-0.7656840682029724,-0.0011596649419516325,0.6073592901229858,0.21148627996444702,0,400,131603
2026-02-16T17:07:39.247Z,37.029998779296875,18,993.3377685546875,-4244,-2107,-551,-390,-10,310,,,,-0.7539043426513672,-0.0007324200123548508,0.6135848760604858,0.23474061489105225,0,400,132589
2026-02-16T17:07:39.227Z,37.029998779296875,18,993.3065795898438,-4044,-2358,-291,-137,877,503,,,,-0.731016218662262,-0.02026361972093582,0.6245711445808411,0.2738640308380127,0,400,129294
2026-02-16T17:07:39.207Z,37.34000015258789,18,993.3143920898438,-3333,-1983,674,-321,659,608,,,,-0.6872540712356567,-0.04748522862792015,0.6566755771636963,0.3068229556083679,0,400,130824
2026-02-16T17:07:39.187Z,37.38999938964844,18,993.3377685546875,-3128,-2134,492,-192,420,273,,,,-0.6581404209136963,-0.06567365676164627,0.6718122363090515,0.33331212401390076,0,400,129389
2026-02-16T17:07:39.167Z,37.439998626708984,18,993.3065795898438,-2593,-2403,620,-10,436,322,,,,-0.6399519443511963,-0.07824686914682388,0.6814557909965515,0.34619051218032837,0,400,130535
2026-02-16T17:07:39.147Z,37.41999816894531,18,993.3143920898438,-2708,-2501,805,106,600,410,,,,-0.6265242695808411,-0.0947263166308403,0.6885358095169067,0.35247713327407837,0,400,130631
2026-02-16T17:07:39.127Z,37.40999984741211,17,993.3377685546875,-2662,-2731,1155,20,433,395,,,,-0.5713486075401306,-0.16174274682998657,0.715452253818512,0.3679800033569336,0,400,130824
2026-02-16T17:07:39.107Z,37.459999084472656,17,993.3065795898438,-2716,-3130,1201,177,334,481,,,,-0.5610337257385254,-0.17602494359016418,0.716795027256012,0.3746938705444336,0,400,130824
2026-02-16T17:07:39.087Z,37.529998779296875,17,993.3377685546875,-2669,-3039,1282,282,298,453,,,,-0.5542588233947754,-0.1915278285741806,0.716001570224762,0.3785390555858612,0,400,129578
2026-02-16T17:07:39.067Z,37.71999740600586,17,993.3533935546875,-2707,-3212,1215,388,241,384,,,,-0.5491318702697754,-0.21063178777694702,0.713010847568512,0.3814687430858612,0,400,129200
2026-02-16T17:07:39.047Z,37.93000030517578,17,993.3767700195312,-2263,-2184,1659,42,326,264,,,,-0.5403428673744202,-0.24359068274497986,0.711057722568512,0.3781728446483612,0,400,129673
2026-02-16T17:07:39.027Z,37.95000076293945,17,993.3533935546875,-2143,-2594,1646,-301,439,241,,,,-0.5161730051040649,-0.25329524278640747,0.720151960849762,0.3882436454296112,0,400,129105
2026-02-16T17:07:39.007Z,37.95000076293945,17,993.3533935546875,-2601,-3870,1944,-453,291,93,,,,-0.49981561303138733,-0.25469905138015747,0.726011335849762,0.3976430296897888,0,400,128077
2026-02-16T17:07:38.987Z,38.27000045776367,17,993.3533935546875,-1611,-3139,1867,-121,-39,295,,,,-0.5023180246353149,-0.25726252794265747,0.714414656162262,0.41351211071014404,0,400,127892
2026-02-16T17:07:38.967Z,38.349998474121094,17,993.3767700195312,-1745,-3205,1942,82,-21,339,,,,-0.5014024972915649,-0.2617790997028351,0.709409773349762,0.42034804821014404,0,400,126610
2026-02-16T17:07:38.947Z,38.29999923706055,17,993.3143920898438,-1777,-3099,859,-11,137,-100,,,,-0.49908319115638733,-0.2653801739215851,0.7078229188919067,0.42352187633514404,0,400,124911
2026-02-16T17:07:38.927Z,38.65999984741211,17,993.3143920898438,-1849,-3082,1531,-70,-265,328,,,,-0.5021959543228149,-0.2665398418903351,0.7048321962356567,0.42413222789764404,0,400,126339
2026-02-16T17:07:38.907Z,38.75,17,993.3377685546875,-1614,-2690,1675,-361,-117,300,,,,-0.5009142160415649,-0.2648918926715851,0.6996442079544067,0.43511852622032166,0,400,127065
2026-02-16T17:07:38.887Z,39.099998474121094,16,993.3533935546875,-1764,-2547,1412,-675,59,337,,,,-0.4929797053337097,-0.25982600450515747,0.6970196962356567,0.4511707127094269,0,400,126701
2026-02-16T17:07:38.867Z,39.099998474121094,16,993.3377685546875,-1412,-2979,1262,-1052,579,65,,,,-0.4678943157196045,-0.24542173743247986,0.7089825868606567,0.4669787883758545,0,400,127431
2026-02-16T17:07:38.847Z,38.98999786376953,16,993.3377685546875,-1410,-4137,2344,559,-255,546,,,,-0.43609505891799927,-0.23339784145355225,0.713193953037262,0.49658074975013733,0,400,126974
2026-02-16T17:07:38.827Z,38.98999786376953,16,993.3533935546875,-1696,-4710,1654,590,290,364,,,,-0.44396859407424927,-0.25305110216140747,0.6998273134231567,0.49896112084388733,0,400,126520
2026-02-16T17:07:38.807Z,39.599998474121094,16,993.3533935546875,-2488,-4846,2120,1392,-264,188,,,,-0.4492786228656769,-0.2752678394317627,0.6928082704544067,0.4922472834587097,0,400,124647
2026-02-16T17:07:38.787Z,39.57999801635742,16,993.4547729492188,-3506,-4458,2159,1563,-1358,-682,,,,-0.49627557396888733,-0.2976676821708679,0.6652204394340515,0.4716174304485321,0,400,124823
2026-02-16T17:07:38.767Z,39.57999801635742,16,993.4703979492188,-1171,-1785,2092,36,-1466,-1568,,,,-0.6258528828620911,-0.25384455919265747,0.6189559102058411,0.4008168578147888,0,400,125621
2026-02-16T17:07:38.747Z,39.73999786376953,16,993.4703979492188,-871,-3042,-259,-781,59,-2005,,,,-0.6484968662261963,-0.20440621674060822,0.6257308125495911,0.3820790946483612,0,400,125000
2026-02-16T17:07:38.727Z,40.040000915527344,16,993.4703979492188,-1340,-3316,1867,-623,1128,-1671,,,,-0.6368392109870911,-0.15850789844989777,0.6678449511528015,0.35095125436782837,0,400,124823
2026-02-16T17:07:38.707Z,40.16999816894531,16,993.4547729492188,-2271,-3070,2312,-324,421,-859,,,,-0.6195052266120911,-0.12945523858070374,0.7013531923294067,0.32781898975372314,0,400,124559
2026-02-16T17:07:38.687Z,40.16999816894531,16,993.431396484375,-3373,-4478,-101,298,-126,-526,,,,-0.6214583516120911,-0.11651581525802612,0.7074567079544067,0.31561198830604553,0,400,122915
2026-02-16T17:07:38.667Z,40.48999786376953,16,993.3923950195312,-2604,-2490,393,1434,428,-518,,,,-0.6363509297370911,-0.14599572122097015,0.717222273349762,0.24334654211997986,0,400,123602
2026-02-16T17:07:38.647Z,40.71999740600586,16,993.4703979492188,-2264,-1682,74,1591,615,-407,,,,-0.6368392109870911,-0.17120318114757538,0.723997175693512,0.20208688080310822,0,400,121230
2026-02-16T17:07:38.627Z,40.71999740600586,16,993.431396484375,-2254,-1495,-131,1488,950,-158,,,,-0.6300032734870911,-0.20715278387069702,0.731748640537262,0.15679891407489777,0,405,120159
2026-02-16T17:07:38.607Z,40.87999725341797,16,993.431396484375,-2872,-1885,961,1443,1050,155,,,,-0.6120589971542358,-0.24591001868247986,0.7417583465576172,0.12072722613811493,0,405,119834
2026-02-16T17:07:38.587Z,41.11000061035156,15,993.431396484375,-3642,-2194,1271,1260,1036,11,,,,-0.5925888419151306,-0.2844231128692627,0.7482891082763672,0.0890500620007515,0,405,119027
2026-02-16T17:07:38.567Z,41.15999984741211,15,993.415771484375,-4019,-1416,1274,948,1105,-298,,,,-0.5447373986244202,-0.33709630370140076,0.7675761580467224,0.01824946515262127,0,444,119268
2026-02-16T17:07:38.547Z,41.31999969482422,15,993.431396484375,-3610,-1838,1394,574,845,-278,,,,0.49645867943763733,0.35253816843032837,-0.7922343015670776,0.03839101642370224,0,444,118390
2026-02-16T17:07:38.527Z,41.68000030517578,15,993.4703979492188,-3131,-1609,1710,256,341,-72,,,,0.4751574695110321,0.364989310503006,-0.7976664304733276,0.06774885207414627,0,444,117446
2026-02-16T17:07:38.507Z,41.79999923706055,15,993.5171508789062,-3352,-1812,1984,80,-104,145,,,,0.4724108874797821,0.3746328353881836,-0.7946757078170776,0.06982403993606567,0,444,117058
2026-02-16T17:07:38.487Z,41.79999923706055,15,993.4937744140625,-3272,-2397,1317,-134,-341,401,,,,0.4625842571258545,0.3753042221069336,-0.8024271130561829,0.033752355724573135,0,499,115680
2026-02-16T17:07:38.467Z,41.93000030517578,15,993.4937744140625,-3217,-2409,967,-226,-663,329,,,,-0.4821154773235321,-0.3782949149608612,0.7901591062545776,0.003173819975927472,24,499,115831
2026-02-16T17:07:38.447Z,42.40999984741211,15,993.5327758789062,-3077,-2520,708,-468,-402,-296,,,,-0.5296617150306702,-0.33758458495140076,0.7766703963279724,0.04675281047821045,24,499,113599
2026-02-16T17:07:38.427Z,42.619998931884766,15,993.4937744140625,-3499,-1900,969,-236,-769,-388,,,,-0.5787948966026306,-0.2766716480255127,0.7654399275779724,0.04876696318387985,24,557,114556
2026-02-16T17:07:38.407Z,42.68000030517578,15,993.4703979492188,-3387,-1961,779,-1140,-280,-58,,,,-0.6113265752792358,-0.1967768371105194,0.7614726424217224,0.08691383898258209,58,557,113672
2026-02-16T17:07:38.387Z,43.11000061035156,15,993.5171508789062,-3896,-1836,1319,-1010,-346,-187,,,,-0.6159042119979858,-0.16705279052257538,0.7625102400779724,0.10583469271659851,58,557,112731
2026-02-16T17:07:38.367Z,43.11000061035156,15,993.6107788085938,-4245,-1741,611,-557,-835,-130,,,,-0.6289046406745911,-0.14343224465847015,0.7543315887451172,0.12152068316936493,58,557,110754
2026-02-16T17:07:38.347Z,43.32999801635742,15,993.5171508789062,-4233,-1452,-160,-662,-599,-350,,,,-0.6441023349761963,-0.12463346868753433,0.7435894012451172,0.12902799248695374,58,636,110271
2026-02-16T17:07:38.327Z,43.5,15,993.4937744140625,-3427,-1309,569,-763,-2,-408,,,,-0.6512434482574463,-0.07586650550365448,0.7411479949951172,0.14385949075222015,103,636,108846
2026-02-16T17:07:38.307Z,43.73999786376953,15,993.5327758789062,-3780,-1188,993,-534,140,-92,,,,-0.6397688388824463,-0.03442373871803284,0.7509136199951172,0.15972860157489777,103,636,107457
2026-02-16T17:07:38.287Z,43.939998626708984,16,993.6107788085938,-3759,-795,345,-584,-168,-199,,,,-0.6476423740386963,0.02020258456468582,0.7379741668701172,0.1881098747253418,103,636,107002
2026-02-16T17:07:38.267Z,44.14999771118164,16,993.5327758789062,-4001,-751,694,-362,-64,-132,,,,-0.6426374912261963,0.06396467983722687,0.7335796356201172,0.21148627996444702,155,820,104970
2026-02-16T17:07:38.247Z,44.349998474121094,16,993.6107788085938,-3923,-974,565,-254,-91,-84,,,,-0.6414778232574463,0.08221414685249329,0.731443464756012,0.21594183146953583,155,820,104289
2026-02-16T17:07:38.227Z,44.349998474121094,16,993.6575927734375,-3840,-1246,108,412,16,-36,,,,-0.6445906162261963,0.08312966674566269,0.730405867099762,0.20971626043319702,155,820,102180
2026-02-16T17:07:38.207Z,44.59000015258789,17,993.6341552734375,-4082,-1215,826,1324,257,-191,,,,-0.6372664570808411,-0.007080059964209795,0.7584819197654724,0.13586391508579254,155,1066,100042
2026-02-16T17:07:38.187Z,44.79999923706055,17,993.6731567382812,-3810,-547,1343,718,214,-143,,,,-0.6281111836433411,-0.10717745870351791,0.7705058455467224,0.015197714790701866,211,1066,98482
2026-02-16T17:07:38.167Z,44.89999771118164,18,993.712158203125,-3987,-566,1339,487,82,-95,,,,-0.6257308125495911,-0.11895721405744553,0.7708720564842224,0.0012817350216209888,211,1066,95042
2026-02-16T17:07:38.147Z,44.95000076293945,19,993.6575927734375,-3966,-603,1050,294,-57,-32,,,,0.6276839375495911,0.13604702055454254,-0.7662944197654724,0.01403804961591959,211,1066,91790
2026-02-16T17:07:38.127Z,44.95000076293945,19,993.6341552734375,-3850,-565,963,230,-13,14,,,,0.6293318867683411,0.14355431497097015,-0.7634257674217224,0.01934809423983097,211,1233,91600
2026-02-16T17:07:38.107Z,45.13999938964844,20,993.6731567382812,-3873,-804,881,363,-5,-37,,,,0.6290267109870911,0.16155964136123657,-0.7598246932029724,0.02844231016933918,250,1233,87002
2026-02-16T17:07:38.087Z,45.31999969482422,20,993.6731567382812,-3918,-665,974,386,-63,-45,,,,0.6306136250495911,0.16937212646007538,-0.7565287947654724,0.03509512543678284,250,1233,82766
2026-02-16T17:07:38.067Z,45.23999786376953,20,993.6965942382812,-3804,-836,759,401,-36,45,,,,0.6321395039558411,0.17675736546516418,-0.7531719207763672,0.041625868529081345,250,1205,82689
2026-02-16T17:07:38.047Z,45.12999725341797,20,993.6731567382812,-4215,-1478,1265,1070,-314,193,,,,0.6382430195808411,0.21234075725078583,-0.7377300262451172,0.05712876096367836,243,1205,82689
2026-02-16T17:07:38.027Z,45.03999710083008,20,993.6731567382812,-3945,-1035,527,934,-11,86,,,,0.6415388584136963,0.23242127895355225,-0.727903425693512,0.06658918410539627,243,1205,84265
2026-02-16T17:07:38.007Z,44.95000076293945,20,993.6731567382812,-3660,-1141,679,1090,310,255,,,,0.6265853047370911,0.2923576533794403,-0.716123640537262,0.0947263166308403,243,1205,84831
2026-02-16T17:07:37.987Z,44.84000015258789,20,993.6731567382812,-3673,-1143,333,882,202,235,,,,0.6190169453620911,0.31329265236854553,-0.712766706943512,0.10259983688592911,233,1161,85405
2026-02-16T17:07:37.967Z,44.84000015258789,20,993.6965942382812,-3607,-1311,334,438,229,98,,,,0.6074203252792358,0.33105385303497314,-0.713499128818512,0.11059542000293732,233,1161,85736
2026-02-16T17:07:37.947Z,44.73999786376953,20,993.6731567382812,-3521,-1447,387,223,195,-43,,,,0.6048568487167358,0.33386144042015076,-0.714048445224762,0.11285371333360672,233,1161,85903
2026-02-16T17:07:37.927Z,44.53999710083008,20,993.6731567382812,-4324,-2113,704,542,-359,-14,,,,0.6068710088729858,0.32263100147247314,-0.717893660068512,0.10998506844043732,233,1163,86154
2026-02-16T17:07:37.907Z,44.45000076293945,20,993.6575927734375,-4394,-1916,-95,-60,2,-447,,,,0.6180403828620911,0.32177650928497314,-0.7086163759231567,0.11077852547168732,234,1163,87519
2026-02-16T17:07:37.887Z,44.45000076293945,20,993.6731567382812,-3453,-1211,275,335,198,51,,,,0.6140121221542358,0.31487956643104553,-0.714597761631012,0.11431855708360672,234,1163,87002
2026-02-16T17:07:37.867Z,44.34000015258789,20,993.6575927734375,-3238,-1003,59,446,295,148,,,,0.6090682744979858,0.31841960549354553,-0.717100203037262,0.11505097150802612,234,1136,88218
2026-02-16T17:07:37.847Z,44.21999740600586,20,993.6575927734375,-3412,-1150,35,575,173,169,,,,0.6007674932479858,0.32897865772247314,-0.718748152256012,0.11871307343244553,228,1136,88130
2026-02-16T17:07:37.827Z,44.119998931884766,20,993.6575927734375,-3854,-948,180,730,-100,15,,,,0.5977767705917358,0.361632376909256,-0.7019025087356567,0.13842737674713135,228,1136,87867
2026-02-16T17:07:37.807Z,44.02000045776367,20,993.6575927734375,-4789,-2307,602,1355,-118,-25,,,,0.5841659903526306,0.40820208191871643,-0.6790754199028015,0.17559769749641418,228,1116,88749
2026-02-16T17:07:37.787Z,43.91999816894531,20,993.6341552734375,-4249,-1534,389,1491,-254,38,,,,0.5807480216026306,0.44494515657424927,-0.6497175693511963,0.20617623627185822,223,1116,89017
2026-02-16T17:07:37.767Z,43.80999755859375,20,993.6575927734375,-4064,-1585,-36,956,382,-259,,,,0.4877306818962097,0.5785507559776306,-0.5370469689369202,0.3726797103881836,223,1116,89740
2026-02-16T17:07:37.747Z,43.70000076293945,20,993.6341552734375,-4139,-1037,-479,714,433,48,,,,0.4533069431781769,0.5953963994979858,-0.5103136301040649,0.42364394664764404,223,1076,90847
2026-02-16T17:07:37.727Z,43.599998474121094,20,993.6575927734375,-3696,-999,-143,905,267,309,,,,0.42028701305389404,0.6126693487167358,-0.49462762475013733,0.4508045017719269,214,1076,89649
2026-02-16T17:07:37.707Z,43.47999954223633,20,993.6341552734375,-3241,-1668,-132,2249,223,1065,,,,0.32250893115997314,0.6757795214653015,-0.4497058689594269,0.4868151545524597,214,1076,91034
2026-02-16T17:07:37.687Z,43.369998931884766,20,993.6575927734375,-3602,-2170,-225,2202,244,896,,,,0.2654412090778351,0.711118757724762,-0.41796767711639404,0.49902215600013733,214,1042,90661
2026-02-16T17:07:37.667Z,43.369998931884766,20,993.5327758789062,-3776,-1890,29,2375,-144,973,,,,0.1955561339855194,0.7495098114013672,-0.3732290267944336,0.5104357004165649,214,1042,90383
2026-02-16T17:07:37.647Z,43.14999771118164,20,993.6731567382812,-3817,-2547,-480,2936,-538,2014,,,,-0.02893058955669403,0.8596779704093933,-0.22320500016212463,0.4584949314594269,206,1042,91411
2026-02-16T17:07:37.627Z,43.14999771118164,20,993.6731567382812,-3174,-2133,-1938,2525,-201,1948,,,,-0.11297578364610672,0.8750587701797485,-0.1885371208190918,0.43109020590782166,206,982,92754
2026-02-16T17:07:37.607Z,42.959999084472656,20,993.6575927734375,-3094,-1338,-2661,1466,-463,1123,,,,-0.21929875016212463,0.8937965631484985,-0.13812220096588135,0.365782767534256,192,982,92463
2026-02-16T17:07:37.587Z,42.959999084472656,20,993.6575927734375,-2379,-632,-2290,1482,-485,1062,,,,-0.26031428575515747,0.9020972847938538,-0.11059542000293732,0.32586586475372314,192,926,92754
2026-02-16T17:07:37.567Z,42.71999740600586,20,993.6341552734375,-3485,-1922,-2947,-690,-168,-113,,,,-0.2736198902130127,0.8882423639297485,-0.13720667362213135,0.34246739745140076,192,926,91790
2026-02-16T17:07:37.547Z,42.71999740600586,20,993.6341552734375,-2166,-1849,-3511,-1274,-91,-560,,,,-0.24920590221881866,0.8903785943984985,-0.15899617969989777,0.34606844186782837,179,832,92754
2026-02-16T17:07:37.527Z,42.61000061035156,20,993.5327758789062,-2383,-2746,-2430,-1782,613,-684,,,,-0.21008247137069702,0.8812843561172485,-0.20184274017810822,0.3720083236694336,179,832,96337
2026-02-16T17:07:37.507Z,42.47999954223633,19,993.6341552734375,-2134,-2148,-1674,-965,264,-199,,,,-0.11413545161485672,0.8335549831390381,-0.2987663149833679,0.4503772556781769,179,832,97024
2026-02-16T17:07:37.487Z,42.369998931884766,19,993.6575927734375,-2549,-2650,-1791,-537,191,-182,,,,-0.0931394100189209,0.8234232068061829,-0.32134926319122314,0.4581897556781769,158,671,97991
2026-02-16T17:07:37.467Z,42.2599983215332,19,993.6107788085938,-3378,-3686,-1722,225,-805,117,,,,-0.050536978989839554,0.8193338513374329,-0.34966951608657837,0.4514148533344269,158,671,99647
2026-02-16T17:07:37.447Z,42.119998931884766,19,993.5327758789062,-2906,-2501,-1749,-670,-576,-26,,,,-0.022094670683145523,0.8288552761077881,-0.3671255111694336,0.42150771617889404,158,671,101361
2026-02-16T17:07:37.427Z,42,19,993.5171508789062,-3622,-3643,-1462,170,-1145,-218,,,,0.12042205780744553,0.7836283445358276,-0.4906603693962097,0.361388236284256,121,617,104044
2026-02-16T17:07:37.407Z,41.88999938964844,19,993.5171508789062,-2677,-2960,-2684,-1612,-367,-1267,,,,0.15685994923114777,0.7786235213279724,-0.49505487084388733,0.35198885202407837,121,617,107002
2026-02-16T17:07:37.387Z,41.77000045776367,19,993.5171508789062,-3180,-3513,-1965,-408,-199,-163,,,,0.1844477653503418,0.7621440291404724,-0.5129381418228149,0.34905916452407837,121,567,109114
2026-02-16T17:07:37.367Z,41.66999816894531,18,993.4937744140625,-2273,-2610,-320,-431,283,114,,,,0.1978754699230194,0.7489604949951172,-0.5295396447181702,0.34558016061782837,91,567,109520
2026-02-16T17:07:37.347Z,41.59000015258789,18,993.4937744140625,-4312,-3589,253,-302,97,-511,,,,0.05407701060175896,0.730650007724762,-0.5308213829994202,0.42590221762657166,91,567,108913
2026-02-16T17:07:37.327Z,41.59000015258789,18,993.4937744140625,-2407,-1185,-540,-1072,-343,-456,,,,0.16503864526748657,0.7368755340576172,-0.5014635324478149,0.42217910289764404,91,567,109114
2026-02-16T17:07:37.307Z,41.37999725341797,18,993.4937744140625,-2751,-2795,-875,-695,-533,-240,,,,0.24438413977622986,0.7085553407669067,-0.5463853478431702,0.3735952377319336,91,539,109317
2026-02-16T17:07:37.287Z,41.29999923706055,18,993.5171508789062,-2738,-2804,-1280,702,-600,341,,,,0.3816518485546112,0.6987897157669067,-0.5429673790931702,0.2666619122028351,63,539,109114
2026-02-16T17:07:37.267Z,41.29999923706055,18,993.5171508789062,-2280,-2637,-1191,97,497,395,,,,0.43487438559532166,0.6733381152153015,-0.5577988624572754,0.21520940959453583,63,539,110685
2026-02-16T17:07:37.247Z,41.099998474121094,18,993.4937744140625,-2255,-2876,-865,-350,1749,102,,,,0.43023571372032166,0.6357405781745911,-0.6053451299667358,0.21008247137069702,63,533,110893
2026-02-16T17:07:37.227Z,41.099998474121094,17,993.4937744140625,-2696,-2814,-87,-34,1671,-179,,,,0.40307512879371643,0.6038802862167358,-0.6455671787261963,0.23651061952114105,47,533,111734
2026-02-16T17:07:37.207Z,41,17,993.4703979492188,-4931,-1528,961,722,-959,-374,,,,0.360106498003006,0.6026595830917358,-0.6481916904449463,0.2947380244731903,47,533,110339
2026-02-16T17:07:37.187Z,40.87999725341797,17,993.4937744140625,-2677,-896,-232,-1484,-33,-475,,,,0.41741836071014404,0.5827011466026306,-0.6335433125495911,0.2911369502544403,44,522,111452
2026-02-16T17:07:37.167Z,40.80999755859375,18,993.5171508789062,-4301,-1349,1456,675,-1251,950,,,,0.43371471762657166,0.5902084708213806,-0.5939925909042358,0.33264073729515076,44,522,111172
2026-02-16T17:07:37.147Z,40.70000076293945,18,993.5171508789062,-4202,-1577,215,-72,-841,573,,,,0.42797741293907166,0.6263411641120911,-0.5754379630088806,0.3054801821708679,44,522,109860
2026-02-16T17:07:37.127Z,40.62999725341797,18,993.4937744140625,-4196,-2203,0,-564,-1158,241,,,,0.41808974742889404,0.6639997363090515,-0.5561509132385254,0.2737419605255127,38,522,108578
2026-02-16T17:07:37.107Z,40.62999725341797,18,993.4703979492188,-3204,-2408,-686,-1609,-844,-345,,,,0.43994027376174927,0.6650373339653015,-0.5543808937072754,0.23815856873989105,38,522,106295
2026-02-16T17:07:37.087Z,40.5099983215332,18,993.4703979492188,-4164,-2479,360,-806,-170,-360,,,,0.5438218712806702,0.3953236937522888,-0.726194441318512,0.14318810403347015,38,522,106231
2026-02-16T17:07:37.067Z,40.29999923706055,18,993.4937744140625,-4008,-1938,316,-610,-287,18,,,,0.5607285499572754,0.35168367624282837,-0.7387676239013672,0.12634244561195374,37,522,103617
2026-02-16T17:07:37.047Z,40.189998626708984,18,993.4937744140625,-3005,-1769,-497,-590,-51,149,,,,0.5728744864463806,0.32055580615997314,-0.7480449676513672,0.0967404767870903,37,527,105849
2026-02-16T17:07:37.027Z,40.099998474121094,18,993.4703979492188,-2995,-1790,10,-474,-48,110,,,,0.5728744864463806,0.31341472268104553,-0.7521343231201172,0.08807350695133209,37,527,108180
2026-02-16T17:07:37.007Z,39.939998626708984,18,993.4703979492188,-3515,-1920,245,155,92,-74,,,,0.5724472403526306,0.3069450259208679,-0.7558574080467224,0.08142068982124329,40,527,110065
2026-02-16T17:07:36.987Z,39.849998474121094,18,993.4937744140625,-3993,-1368,513,595,31,91,,,,0.5552964210510254,0.3753652572631836,-0.722532331943512,0.16900591552257538,40,502,112159
2026-02-16T17:07:36.967Z,39.79999923706055,19,993.5171508789062,-3851,-1340,206,279,-187,-88,,,,0.5485215187072754,0.40215960144996643,-0.7081891298294067,0.1889033317565918,26,502,115453
2026-02-16T17:07:36.947Z,39.7599983215332,19,993.4703979492188,-3411,-1046,143,22,-121,-86,,,,0.5474228858947754,0.41198626160621643,-0.7002545595169067,0.2002558410167694,26,502,116441
2026-02-16T17:07:36.927Z,39.7599983215332,19,993.4703979492188,-3873,-1880,924,111,-417,121,,,,0.5013414621353149,0.43652230501174927,-0.6932355165481567,0.2781975269317627,26,425,120733
2026-02-16T17:07:36.907Z,39.62999725341797,19,993.4703979492188,-4509,-2051,331,46,-44,122,,,,0.4657580852508545,0.4899889826774597,-0.6583845615386963,0.33080971240997314,26,425,123862
2026-02-16T17:07:36.887Z,39.52000045776367,19,993.4547729492188,-3951,-1202,-104,129,-84,152,,,,0.4540393650531769,0.5034166574478149,-0.6500227451324463,0.34313875436782837,0,425,124122
2026-02-16T17:07:36.867Z,39.48999786376953,20,993.4703979492188,-3884,-1184,-534,231,-187,152,,,,0.4497669041156769,0.5173326730728149,-0.6452620029449463,0.33697423338890076,0,425,125088
2026-02-16T17:07:36.847Z,39.36000061035156,19,993.4547729492188,-3820,-1280,-406,159,-145,84,,,,0.4491565525531769,0.5208116769790649,-0.6434919834136963,0.33587560057640076,0,400,125176
2026-02-16T17:07:36.827Z,39.22999954223633,19,993.4703979492188,-3362,-2166,-159,144,165,52,,,,0.44085580110549927,0.5324693322181702,-0.6426985263824463,0.33007729053497314,0,400,125354
2026-02-16T17:07:36.807Z,39.11000061035156,19,993.4547729492188,-3650,-1611,491,1013,593,-241,,,,0.13336147367954254,0.6705915331840515,-0.44213753938674927,0.5804428458213806,0,400,125000
2026-02-16T17:07:36.787Z,39.0099983215332,19,993.4703979492188,-3701,-1551,445,720,579,-279,,,,0.0928952693939209,0.6714460253715515,-0.3974599242210388,0.6184065937995911,0,400,124911
2026-02-16T17:07:36.767Z,38.88999938964844,19,993.4547729492188,-3951,-1477,525,820,269,-298,,,,0.06500227749347687,0.6681501269340515,-0.357787162065506,0.6490461826324463,0,400,123429
2026-02-16T17:07:36.747Z,38.790000915527344,18,993.4703979492188,-3869,-1286,162,812,81,-275,,,,0.04009999334812164,0.6787702441215515,-0.31292644143104553,0.6630231738090515,0,400,124297
2026-02-16T17:07:36.727Z,38.709999084472656,18,993.431396484375,-3786,-1021,226,549,147,-214,,,,0.01867670938372612,0.6865216493606567,-0.2684319317340851,0.6754133105278015,0,400,124297
2026-02-16T17:07:36.707Z,38.709999084472656,18,993.431396484375,-3898,-1020,254,312,-646,16,,,,-0.0026855398900806904,0.713438093662262,-0.22283878922462463,0.6642438769340515,0,400,122744
2026-02-16T17:07:36.687Z,38.47999954223633,18,993.415771484375,-3349,-745,-12,95,-582,74,,,,-0.005187974777072668,0.728879988193512,-0.21820011734962463,0.6488020420074463,0,400,121730
2026-02-16T17:07:36.667Z,38.5,17,993.3923950195312,-3441,-1802,-509,-30,-652,588,,,,-0.012634244747459888,0.7610453963279724,-0.24700865149497986,0.5996078252792358,0,400,121480
2026-02-16T17:07:36.647Z,38.5,17,993.3533935546875,-3100,-2620,-1078,-179,-722,171,,,,0.0026855398900806904,0.8014506101608276,-0.2643425762653351,0.5363755822181702,0,400,119429
2026-02-16T17:07:36.627Z,38.52000045776367,17,993.3923950195312,-3000,-1594,-1526,-493,-494,-535,,,,0.01776118576526642,0.8300759792327881,-0.3032218813896179,0.4675891399383545,0,400,118231
2026-02-16T17:07:36.607Z,38.52000045776367,17,993.3767700195312,-3775,-1858,-1979,-1068,-590,-733,,,,0.12304656207561493,0.8213480114936829,-0.33386144042015076,0.44573861360549927,0,400,120898
2026-02-16T17:07:36.587Z,38.5,17,993.3923950195312,-2806,-2252,-1775,-707,-240,-514,,,,0.30895915627479553,0.7638530135154724,-0.42413222789764404,0.3755483627319336,0,400,119752
2026-02-16T17:07:36.567Z,38.5,17,993.3767700195312,-2935,-2067,-2027,-144,-439,-465,,,,0.32562172412872314,0.7586650252342224,-0.42413222789764404,0.3719472885131836,0,400,121147
2026-02-16T17:07:36.547Z,38.62999725341797,17,993.431396484375,-2696,-1773,-2122,-611,-226,-136,,,,0.34619051218032837,0.7546977996826172,-0.42108047008514404,0.364928275346756,0,400,119996
2026-02-16T17:07:36.527Z,38.7599983215332,17,993.415771484375,-3013,-1315,-1473,-891,-313,151,,,,0.35027986764907837,0.7777079939842224,-0.41430556774139404,0.31732097268104553,0,400,118152
2026-02-16T17:07:36.507Z,38.81999969482422,17,993.431396484375,-2313,-915,-1817,-1032,-140,-637,,,,0.42114150524139404,0.7588481307029724,-0.42645153403282166,0.25439387559890747,0,400,119752
2026-02-16T17:07:36.487Z,38.81999969482422,17,993.4547729492188,-3106,-2072,-2343,-189,-104,-239,,,,0.5458970665931702,0.6509382724761963,-0.4885241389274597,0.1987909972667694,0,400,119752
2026-02-16T17:07:36.467Z,39.12999725341797,17,993.431396484375,-3879,-1863,-2000,-13,-477,533,,,,0.49932733178138733,0.709592878818512,-0.4537952244281769,0.20275826752185822,0,400,118152
2026-02-16T17:07:36.447Z,39.13999938964844,17,993.431396484375,-2972,-976,-1951,-1095,176,-695,,,,0.5295396447181702,0.6672956347465515,-0.49572625756263733,0.16863970458507538,0,400,118628
2026-02-16T17:07:36.427Z,39.21999740600586,17,993.4547729492188,-2675,-1423,-1350,-574,-21,-523,,,,0.5468125343322754,0.6340926289558411,-0.5203844308853149,0.16741900146007538,0,400,119107
2026-02-16T17:07:36.407Z,39.5,17,993.4937744140625,-3278,-2196,-1724,-1702,-116,-710,,,,0.5908188223838806,0.5846542716026306,-0.5358262658119202,0.14813195168972015,0,400,119348
2026-02-16T17:07:36.387Z,39.5,17,993.4703979492188,-4178,-2079,-1251,-472,-786,-209,,,,0.6018050909042358,0.5723862051963806,-0.5510849952697754,0.08007791638374329,0,400,118708
2026-02-16T17:07:36.367Z,39.599998474121094,17,993.4703979492188,-1755,-2551,-2548,-618,-209,-68,,,,-0.8442971706390381,-0.12365690618753433,0.4624621868133545,0.24053893983364105,0,400,116518
2026-02-16T17:07:36.347Z,39.57999801635742,17,993.4937744140625,-3025,-3413,-915,652,383,311,,,,-0.8113992810249329,-0.21600286662578583,0.4931017756462097,0.22741641104221344,0,400,117058
2026-02-16T17:07:36.327Z,39.91999816894531,16,993.5327758789062,-3361,-2700,-965,384,996,412,,,,0.6220076680183411,0.5301499962806702,-0.5746445059776306,0.041992079466581345,0,400,114630
2026-02-16T17:07:36.307Z,39.91999816894531,16,993.4703979492188,-3389,-2101,-298,660,871,-21,,,,0.5061632394790649,0.5727524161338806,-0.6228621602058411,0.16619829833507538,0,400,114260
2026-02-16T17:07:36.287Z,39.89999771118164,16,993.4937744140625,-4472,-1710,-590,285,-291,1,,,,0.4644153118133545,0.6384871602058411,-0.5741562247276306,0.21661321818828583,0,400,112515
2026-02-16T17:07:36.267Z,39.939998626708984,16,993.4547729492188,-2763,-901,-1125,-1157,-410,-796,,,,0.5537705421447754,0.6036361455917358,-0.5451036095619202,0.177917018532753,0,400,113599
2026-02-16T17:07:36.247Z,40.14999771118164,16,993.415771484375,-2763,-901,-1125,-1157,-410,-796,,,,0.5537705421447754,0.6036361455917358,-0.5451036095619202,0.177917018532753,0,400,114408
2026-02-16T17:07:36.227Z,40.34000015258789,16,993.4703979492188,-3361,-1610,-1010,-781,-50,-194,,,,0.6264021992683411,0.41369521617889404,-0.6573469638824463,0.06530745327472687,0,400,114556
2026-02-16T17:07:36.207Z,40.34000015258789,16,993.4937744140625,-3238,-1616,-1030,-851,42,-252,,,,0.6281722187995911,0.40594378113746643,-0.6608870029449463,0.060851894319057465,0,400,114039
2026-02-16T17:07:36.187Z,40.48999786376953,16,993.5171508789062,-3218,-2369,-122,496,1084,-167,,,,0.6008895635604858,0.3879384696483612,-0.6970807313919067,0.04833972081542015,0,400,113308
2026-02-16T17:07:36.167Z,40.70000076293945,16,993.4703979492188,-3802,-1733,732,-1626,-535,-245,,,,-0.6903668642044067,0.0987546294927597,0.6413557529449463,0.31964030861854553,0,400,114630
2026-02-16T17:07:36.147Z,40.65999984741211,16,993.5171508789062,-3342,419,2628,-1337,-262,695,,,,0.05639633908867836,0.5076891183853149,-0.06646711379289627,0.8570534586906433,0,400,113892
2026-02-16T17:07:36.127Z,40.65999984741211,16,993.5171508789062,-3934,-1257,-967,575,15,71,,,,-0.01428219024091959,0.7595805525779724,-0.10620089620351791,0.6414778232574463,0,400,114186
2026-02-16T17:07:36.107Z,41.040000915527344,16,993.4937744140625,-3833,-1668,-237,1668,245,307,,,,-0.0950314924120903,0.7615947127342224,-0.060546718537807465,0.6381209492683411,0,400,112947
2026-02-16T17:07:36.087Z,41.14999771118164,16,993.4937744140625,-3518,-1118,-238,1963,159,266,,,,-0.11273164302110672,0.7612285017967224,-0.043762095272541046,0.6370223164558411,0,400,112731
2026-02-16T17:07:36.067Z,41.46999740600586,16,993.4703979492188,-4659,-1087,-302,1167,-291,106,,,,-0.2990104556083679,0.7624492049217224,0.0911252573132515,0.5664658546447754,0,400,112301
2026-02-16T17:07:36.047Z,41.459999084472656,16,993.4547729492188,-2634,338,-2951,-350,520,-344,,,,-0.7012921571731567,0.6069930791854858,0.2990104556083679,0.22399844229221344,0,409,112159
2026-02-16T17:07:36.027Z,41.439998626708984,16,993.4937744140625,-3581,-1825,-3867,1233,-1766,1067,,,,-0.933103084564209,0.2913200557231903,0.20422311127185822,0.051086295396089554,0,409,109996
2026-02-16T17:07:36.007Z,41.57999801635742,16,993.4703979492188,-1554,-2212,-2713,-1810,-694,-1868,,,,-0.8367898464202881,0.5118395090103149,0.0963132306933403,0.16845659911632538,0,409,107002
2026-02-16T17:07:35.987Z,41.57999801635742,15,993.4703979492188,-1554,-2212,-2713,-1810,-694,-1868,,,,-0.8367898464202881,0.5118395090103149,0.0963132306933403,0.16845659911632538,0,432,106744
2026-02-16T17:07:35.967Z,41.7599983215332,15,993.5171508789062,-368,-1363,-3061,1099,-150,2201,,,,-0.6773054003715515,0.726865828037262,0.03594961389899254,0.10723849385976791,0,432,105849
2026-02-16T17:07:35.947Z,41.779998779296875,15,993.4937744140625,0,-682,-3142,430,253,2310,,,,-0.7752055525779724,0.6220687031745911,0.061767421662807465,0.0905149057507515,0,432,105534
2026-02-16T17:07:35.927Z,42.06999969482422,15,993.5327758789062,-460,-2256,-4350,303,445,2576,,,,-0.9653905630111694,0.1935419887304306,0.13134731352329254,0.11480683833360672,0,432,105597
2026-02-16T17:07:35.907Z,42.23999786376953,15,993.5327758789062,-938,-2221,-4859,783,659,2197,,,,-0.930722713470459,-0.3028556704521179,0.180724635720253,0.0964963361620903,0,468,104536
2026-02-16T17:07:35.887Z,42.41999816894531,15,993.6107788085938,-2849,-1391,-2238,-318,575,-1309,,,,0.8983131051063538,0.3793935477733612,-0.21685735881328583,0.044067271053791046,0,468,104166
2026-02-16T17:07:35.867Z,42.790000915527344,15,993.5171508789062,168,-1240,-4026,-1648,190,-3256,,,,-0.6576521396636963,0.7422466278076172,0.12390104681253433,0.033508215099573135,7,468,103496
2026-02-16T17:07:35.847Z,42.790000915527344,15,993.6575927734375,-356,-1425,-4548,-492,-235,-2611,,,,-0.5203844308853149,0.8480203151702881,0.08642555773258209,0.04998766630887985,7,506,104845
2026-02-16T17:07:35.827Z,43.04999923706055,15,993.712158203125,358,-567,-3782,-1316,-35,-2508,,,,-0.33978185057640076,0.937619686126709,0.030944744125008583,0.06646711379289627,28,506,101244
2026-02-16T17:07:35.807Z,43.04999923706055,15,993.6731567382812,-320,-2139,-1217,154,1770,2482,,,,-0.32195961475372314,0.9073463082313538,-0.0958859845995903,0.25244075059890747,28,506,99704
2026-02-16T17:07:35.787Z,43.64999771118164,15,993.5171508789062,-3829,-2764,829,-1103,-894,-2805,,,,-0.6418440341949463,0.6729108691215515,-0.07330303639173508,0.360228568315506,28,549,99089
2026-02-16T17:07:35.767Z,43.80999755859375,15,993.6575927734375,377,-3827,-3361,-117,-2168,-1546,,,,-0.20794624090194702,0.9081397652626038,-0.22381535172462463,0.2860099971294403,28,549,96811
2026-02-16T17:07:35.747Z,43.869998931884766,15,993.6575927734375,997,-2314,-3622,-369,343,782,,,,-0.11541718244552612,0.918637752532959,-0.2639153301715851,0.2702629864215851,53,549,94788
2026-02-16T17:07:35.727Z,44.38999938964844,15,993.6575927734375,-1469,-5139,-2380,655,1408,2231,,,,-0.30877605080604553,0.8385598659515381,-0.31469646096229553,0.31994545459747314,53,594,92463
2026-02-16T17:07:35.707Z,44.47999954223633,15,993.6341552734375,-2400,-5426,-2572,1998,906,2475,,,,-0.43945199251174927,0.8004740476608276,-0.2746574878692627,0.3009635806083679,53,594,92949
2026-02-16T17:07:35.687Z,44.41999816894531,15,993.6341552734375,-2940,-5152,-3285,2357,666,1488,,,,-0.5225206613540649,0.7817362546920776,-0.22259464859962463,0.25732356309890747,79,594,92949
