timestamp,temperature_temperature,humidity_humidity,pressure_pressure,accelerometer_Ax,accelerometer_Ay,accelerometer_Az,gyroscope_x,gyroscope_y,gyroscope_z,led_R,led_G,led_B,quaternion_x,quaternion_y,quaternion_z,quaternion_w,bsec_bsec,co2_co2,gas_gas
2026-02-16T17:17:40.134Z,47.70000076293945,12,993.415771484375,139,-3192,-2570,20,-325,-557,,,,-0.7655619978904724,-0.5418077111244202,0.022033635526895523,0.34612947702407837,126,811,111382
2026-02-16T17:17:40.114Z,47.70000076293945,12,993.431396484375,2410,-1832,-3431,651,-860,-1054,,,,-0.9152198433876038,-0.16686968505382538,-0.04718005657196045,0.363646537065506,126,889,110823
2026-02-16T17:17:40.094Z,47.96999740600586,12,993.3923950195312,2144,-2372,-2273,-656,578,2333,,,,-0.8676125407218933,-0.3856191337108612,-0.00750730512663722,0.31365886330604553,126,889,109928
2026-02-16T17:17:40.074Z,48.16999816894531,12,993.3923950195312,2136,-2203,-3124,-798,1000,2089,,,,-0.5407701134681702,-0.7629374861717224,0.007324200123548508,0.35400301218032837,126,889,108980
2026-02-16T17:17:40.054Z,48.34000015258789,12,993.431396484375,3410,-2797,-2121,1622,-1090,-2652,,,,-0.714597761631012,-0.5536484718322754,-0.12780728936195374,0.40783587098121643,134,940,108180
2026-02-16T17:17:40.034Z,48.5099983215332,12,993.431396484375,2985,802,-3116,410,282,666,,,,-0.9783300161361694,-0.08715797960758209,-0.16064411401748657,0.0970456525683403,134,940,106487
2026-02-16T17:17:40.014Z,48.71999740600586,12,993.4547729492188,3278,-648,-3375,-354,-532,2660,,,,-0.8579079508781433,-0.4757678210735321,-0.182006374001503,0.06665021926164627,134,940,106808
2026-02-16T17:17:39.994Z,48.709999084472656,12,993.4703979492188,1575,-18,-3142,-992,-731,1478,,,,-0.42199599742889404,-0.8643166422843933,-0.22906436026096344,0.14935263991355896,139,940,105849
2026-02-16T17:17:39.974Z,48.689998626708984,13,993.4703979492188,2843,-2698,-4449,-513,-227,-2648,,,,-0.3867788016796112,-0.8414285182952881,-0.15698201954364777,0.34301671385765076,139,967,103496
2026-02-16T17:17:39.954Z,48.64999771118164,13,993.431396484375,3439,-1482,-2715,2351,-349,-1743,,,,-0.8737770318984985,-0.2952263057231903,-0.25476008653640747,0.2904045283794403,139,967,103134
2026-02-16T17:17:39.934Z,48.64999771118164,13,993.4547729492188,2891,171,-2903,262,83,-92,,,,-0.9617895483970642,-0.07818583399057388,-0.24169859290122986,0.10174534469842911,135,967,102299
2026-02-16T17:17:39.914Z,48.63999938964844,13,993.4547729492188,2384,-1118,-3519,-333,97,1959,,,,-0.926267147064209,-0.3025504946708679,-0.1947016566991806,0.11151094734668732,135,947,102180
2026-02-16T17:17:39.894Z,48.64999771118164,13,993.4547729492188,681,-626,-2989,-1071,231,1712,,,,-0.6242049336433411,-0.7702006697654724,-0.07226543873548508,0.10882540792226791,135,947,101187
2026-02-16T17:17:39.874Z,48.68000030517578,13,993.4703979492188,1775,-4112,-1257,-701,-1150,-1668,,,,-0.34863191843032837,-0.7716655135154724,0.178649440407753,0.5009752511978149,135,947,102299
2026-02-16T17:17:39.854Z,48.62999725341797,13,993.4703979492188,1306,-4102,1282,-683,-3049,-1458,,,,-0.6684553027153015,-0.15814168751239777,0.15362510085105896,0.710264265537262,123,871,105032
2026-02-16T17:17:39.834Z,48.54999923706055,12,993.4937744140625,-198,-3639,759,865,1706,568,,,,-0.6558821201324463,0.07299786061048508,0.13684046268463135,0.7387065887451172,123,871,105976
2026-02-16T17:17:39.814Z,48.5099983215332,12,993.5171508789062,-483,-4051,373,-96,-217,-28,,,,-0.6565535068511963,-0.15435750782489777,0.2659294903278351,0.6886578798294067,121,855,106167
2026-02-16T17:17:39.794Z,48.439998626708984,12,993.4937744140625,-905,-3892,664,-7,0,-81,,,,-0.6506330966949463,-0.14831504225730896,0.2686760723590851,0.6945172548294067,121,855,106615
2026-02-16T17:17:39.774Z,48.369998931884766,12,993.4937744140625,-719,-4106,626,5,-160,78,,,,-0.6406843662261963,-0.14678917825222015,0.24243101477622986,0.713499128818512,121,855,106615
2026-02-16T17:17:39.754Z,48.29999923706055,12,993.4937744140625,69,-4069,291,-256,160,-97,,,,-0.6559431552886963,-0.08807350695133209,0.20178170502185822,0.721921980381012,119,855,106744
2026-02-16T17:17:39.734Z,48.23999786376953,12,993.4937744140625,-948,-3642,1367,-23,991,-252,,,,-0.5765365958213806,-0.15423543751239777,0.34954744577407837,0.722166121006012,119,844,106615
2026-02-16T17:17:39.714Z,48.16999816894531,12,993.4703979492188,-784,-3798,1346,-10,64,1,,,,-0.5532822608947754,-0.20733588933944702,0.40191546082496643,0.6994611024856567,119,844,106873
2026-02-16T17:17:39.694Z,48.11000061035156,13,993.4937744140625,-566,-3845,1232,10,-156,18,,,,-0.5603013038635254,-0.20129342377185822,0.3890981376171112,0.7028790712356567,119,844,107784
2026-02-16T17:17:39.674Z,48.03999710083008,13,993.4937744140625,-615,-3788,1403,46,407,68,,,,-0.5356431603431702,-0.24609312415122986,0.41961562633514404,0.6901837587356567,119,845,106808
2026-02-16T17:17:39.654Z,47.97999954223633,13,993.4703979492188,-910,-4010,1587,124,-1191,-199,,,,-0.5668931007385254,-0.21301214396953583,0.3665761947631836,0.7062360048294067,119,845,106487
2026-02-16T17:17:39.634Z,47.88999938964844,13,993.4937744140625,-91,-4501,1556,192,1947,-263,,,,-0.5458970665931702,-0.21710149943828583,0.3938588500022888,0.7068463563919067,120,845,107132
2026-02-16T17:17:39.614Z,47.82999801635742,13,993.4937744140625,-1852,-4128,1309,725,525,-270,,,,-0.5183092355728149,-0.35375887155532837,0.49920526146888733,0.5974105596542358,120,845,107522
2026-02-16T17:17:39.594Z,47.68000030517578,13,993.4937744140625,-1515,-3022,1848,-313,-2341,-1232,,,,-0.6665632128715515,-0.2719109356403351,0.41979873180389404,0.5526108741760254,120,850,108246
2026-02-16T17:17:39.574Z,47.68000030517578,13,993.4937744140625,-952,-4167,1869,-2564,164,-555,,,,-0.5482163429260254,0.17254593968391418,0.3058463931083679,0.7589702010154724,118,850,108445
2026-02-16T17:17:39.554Z,47.61000061035156,13,993.4937744140625,-2552,1511,4639,1357,1409,-809,,,,-0.21466009318828583,0.053039416670799255,0.7651347517967224,0.6046127080917358,118,850,108578
2026-02-16T17:17:39.534Z,47.439998626708984,13,993.4937744140625,-1298,-1226,4069,38,76,8,,,,-0.20465035736560822,-0.042480360716581345,0.8203714489936829,0.5321641564369202,118,836,108312
2026-02-16T17:17:39.514Z,47.36000061035156,13,993.4937744140625,-1156,-1164,3774,25,18,-5,,,,-0.20654243230819702,-0.04675281047821045,0.8211649060249329,0.5298448204994202,119,836,107982
2026-02-16T17:17:39.494Z,47.209999084472656,13,993.4547729492188,-1154,-1255,3697,36,-4,8,,,,-0.20922797918319702,-0.051452506333589554,0.8199442028999329,0.5302720665931702,119,836,108312
2026-02-16T17:17:39.474Z,47.03999710083008,13,993.4703979492188,-1135,-1452,3743,87,-42,101,,,,-0.21923771500587463,-0.06823713332414627,0.8090189099311829,0.5410142540931702,119,845,108512
2026-02-16T17:17:39.454Z,46.959999084472656,13,993.4703979492188,-1246,-1656,3518,233,-37,148,,,,-0.25634700059890747,-0.07531718909740448,0.7823466062545776,0.5624985694885254,123,845,106873
2026-02-16T17:17:39.434Z,46.849998474121094,13,993.4547729492188,542,-4113,2333,1861,273,2088,,,,-0.33599767088890076,-0.35314851999282837,0.5148912668228149,0.7050763368606567,123,845,107002
2026-02-16T17:17:39.414Z,46.77000045776367,13,993.4703979492188,1680,-3490,1367,11,-149,-40,,,,-0.364989310503006,-0.4497058689594269,0.34521394968032837,0.7384624481201172,125,866,107392
2026-02-16T17:17:39.394Z,46.68000030517578,13,993.4937744140625,1449,-3545,1622,-213,-253,-602,,,,-0.358458548784256,-0.4010609984397888,0.365477591753006,0.7595805525779724,125,866,107196
2026-02-16T17:17:39.374Z,46.59000015258789,13,993.4937744140625,901,-3764,2032,3,120,-243,,,,-0.3815908133983612,-0.3677358627319336,0.3982533812522888,0.7485942840576172,125,866,107067
2026-02-16T17:17:39.354Z,46.47999954223633,13,993.4703979492188,1417,-3330,2133,-39,40,35,,,,-0.32714760303497314,-0.3714590072631836,0.3729848861694336,0.7847269773483276,123,884,106937
2026-02-16T17:17:39.334Z,46.40999984741211,13,993.4547729492188,1415,-3220,2096,-8,36,-18,,,,-0.32739174365997314,-0.3742055892944336,0.3745718002319336,0.7825297117233276,123,884,106937
2026-02-16T17:17:39.314Z,46.31999969482422,13,993.4703979492188,1439,-3349,2085,50,80,-70,,,,-0.32604897022247314,-0.3746328353881836,0.3751821517944336,0.7825907468795776,121,884,107916
2026-02-16T17:17:39.294Z,46.22999954223633,13,993.4547729492188,1409,-3333,2098,-6,82,-7,,,,-0.32458412647247314,-0.3771963119506836,0.3809194266796112,0.7791727781295776,121,884,107719
2026-02-16T17:17:39.274Z,46.22999954223633,13,993.4547729492188,1436,-3191,2153,-20,-7,15,,,,-0.31548991799354553,-0.3782949149608612,0.3840932548046112,0.7808207273483276,121,870,108445
2026-02-16T17:17:39.254Z,46.13999938964844,13,993.415771484375,1499,-3191,2112,-22,-48,57,,,,-0.31152263283729553,-0.3762197494506836,0.3786000907421112,0.7860697507858276,119,858,108779
2026-02-16T17:17:39.234Z,46.04999923706055,14,993.3923950195312,1391,-3071,2222,-22,-31,-3,,,,-0.31072917580604553,-0.3765859603881836,0.3782338798046112,0.7864359617233276,119,858,108512
2026-02-16T17:17:39.214Z,45.95000076293945,14,993.415771484375,1489,-3200,2108,16,-14,-6,,,,-0.30993571877479553,-0.3768911361694336,0.3793935477733612,0.7860697507858276,117,842,108578
2026-02-16T17:17:39.194Z,45.849998474121094,14,993.3923950195312,1566,-3238,2020,18,10,3,,,,-0.31188884377479553,-0.3767080307006836,0.3779287040233612,0.7860087156295776,117,842,109384
2026-02-16T17:17:39.174Z,45.75,14,993.3767700195312,1377,-3174,2185,0,-1,-2,,,,-0.31298747658729553,-0.3801259696483612,0.3795156180858612,0.7832010984420776,117,842,108779
2026-02-16T17:17:39.154Z,45.65999984741211,14,993.3923950195312,1481,-3206,2212,11,33,-27,,,,-0.31463542580604553,-0.3802480399608612,0.3775625228881836,0.7834452390670776,115,831,109182
2026-02-16T17:17:39.134Z,45.46999740600586,14,993.415771484375,1431,-3172,2152,61,-43,41,,,,-0.31634441018104553,-0.3818959891796112,0.3775014877319336,0.7819803953170776,115,831,108578
2026-02-16T17:17:39.114Z,45.369998931884766,14,993.3923950195312,1455,-3205,1929,-25,-74,-38,,,,-0.32971107959747314,-0.3806752860546112,0.364928275346756,0.7829569578170776,115,831,109114
2026-02-16T17:17:39.094Z,45.2599983215332,14,993.3923950195312,1451,-3175,2183,-86,72,0,,,,-0.32220375537872314,-0.3798818290233612,0.365111380815506,0.7864359617233276,115,831,108048
2026-02-16T17:17:39.074Z,45.2599983215332,14,993.415771484375,1576,-3140,2002,17,2,3,,,,-0.32104408740997314,-0.3846425712108612,0.360472708940506,0.7867411375045776,113,821,109114
2026-02-16T17:17:39.054Z,45.05999755859375,14,993.3923950195312,1542,-3285,2169,46,-8,32,,,,-0.32153236865997314,-0.3911122679710388,0.355284720659256,0.7857035398483276,113,821,109317
2026-02-16T17:17:39.034Z,44.95000076293945,14,993.431396484375,1553,-3311,2079,-6,16,-4,,,,-0.32751381397247314,-0.3860463798046112,0.35143953561782837,0.7874735593795776,113,821,109384
2026-02-16T17:17:39.014Z,44.849998474121094,14,993.3767700195312,1563,-3251,1934,60,33,31,,,,-0.33044350147247314,-0.3859853446483612,0.34503084421157837,0.7890604734420776,113,820,109928
2026-02-16T17:17:38.994Z,44.7599983215332,14,993.431396484375,1577,-3226,1930,4,-11,1,,,,-0.33386144042015076,-0.3898305296897888,0.34539705514907837,0.7855814695358276,113,820,110893
2026-02-16T17:17:38.974Z,44.63999938964844,14,993.3923950195312,1557,-3250,2040,15,-38,-12,,,,-0.33514317870140076,-0.3927602171897888,0.34503084421157837,0.7837504148483276,110,805,110962
2026-02-16T17:17:38.954Z,44.63999938964844,14,993.415771484375,1590,-3342,1941,-25,44,30,,,,-0.33618077635765076,-0.3960561156272888,0.34698396921157837,0.7807596921920776,110,805,111032
2026-02-16T17:17:38.934Z,44.54999923706055,14,993.3923950195312,1633,-3241,1890,0,21,0,,,,-0.33605870604515076,-0.3959950804710388,0.34808260202407837,0.7803934812545776,108,803,110616
2026-02-16T17:17:38.914Z,44.45000076293945,14,993.3767700195312,1516,-3216,1872,13,40,-6,,,,-0.33465489745140076,-0.3959950804710388,0.35052400827407837,0.7798441648483276,108,803,110685
2026-02-16T17:17:38.894Z,44.349998474121094,15,993.3923950195312,1546,-3144,1850,25,-7,52,,,,-0.33496007323265076,-0.3956288695335388,0.35034090280532837,0.7800272703170776,108,803,111734
2026-02-16T17:17:38.874Z,44.23999786376953,15,993.3767700195312,1528,-3226,1855,39,-4,-109,,,,-0.33117592334747314,-0.3992299437522888,0.35223299264907837,0.7789286971092224,108,790,111593
2026-02-16T17:17:38.854Z,44.13999938964844,15,993.3533935546875,1532,-3256,1968,10,-6,-60,,,,-0.32714760303497314,-0.3946523070335388,0.34747225046157837,0.7850931882858276,107,790,111663
2026-02-16T17:17:38.834Z,44.040000915527344,15,993.3767700195312,1686,-3223,2017,-127,-34,53,,,,-0.31048503518104553,-0.3937978148460388,0.34692293405532837,0.7925394773483276,107,777,112088
2026-02-16T17:17:38.814Z,43.93000030517578,15,993.3377685546875,2002,-2976,2153,-74,-58,120,,,,-0.2746574878692627,-0.3968495726585388,0.33801183104515076,0.8079202771186829,103,777,113454
2026-02-16T17:17:38.794Z,43.81999969482422,15,993.3767700195312,1875,-2920,2222,5,0,-18,,,,-0.2728264629840851,-0.3961781859397888,0.33611974120140076,0.8096292614936829,103,769,111102
2026-02-16T17:17:38.774Z,43.71999740600586,15,993.3533935546875,1875,-2953,2200,19,-22,-22,,,,-0.2737419605255127,-0.3947743773460388,0.33550938963890076,0.8102396130561829,99,769,111946
2026-02-16T17:17:38.754Z,43.619998931884766,15,993.3377685546875,1738,-2971,2344,17,-9,-249,,,,-0.2777702808380127,-0.3746328353881836,0.35070711374282837,0.8120096325874329,99,769,112088
2026-02-16T17:17:38.734Z,43.619998931884766,15,993.3377685546875,1459,-2876,2312,23,-17,-159,,,,-0.2922966182231903,-0.358458548784256,0.3829946219921112,0.7995585203170776,99,744,112088
2026-02-16T17:17:38.714Z,43.41999816894531,15,993.3767700195312,1199,-3045,2286,-50,51,-41,,,,-0.2964470088481903,-0.34619051218032837,0.40661516785621643,0.7917460203170776,97,744,114556
2026-02-16T17:17:38.694Z,43.32999801635742,15,993.3533935546875,1300,-3131,2608,-20,14,-161,,,,-0.2777092456817627,-0.362608939409256,0.41723525524139404,0.7856425046920776,97,744,113892
2026-02-16T17:17:38.674Z,43.32999801635742,15,993.3533935546875,1046,-3152,2593,25,-218,-114,,,,-0.2895500361919403,-0.34265050292015076,0.42736706137657166,0.7848490476608276,97,719,112230
2026-02-16T17:17:38.654Z,43.14999771118164,15,993.3143920898438,927,-3038,2449,-13,-15,-59,,,,-0.30895915627479553,-0.30999675393104553,0.43237194418907166,0.7882670164108276,91,719,112802
2026-02-16T17:17:38.634Z,43.14999771118164,15,993.3143920898438,800,-3057,2744,-7,42,-83,,,,-0.3059684634208679,-0.3060294985771179,0.4564807713031769,0.7773417830467224,91,719,111804
2026-02-16T17:17:38.614Z,43.029998779296875,15,993.3377685546875,639,-3025,2670,-27,-9,13,,,,-0.3072502017021179,-0.2874138057231903,0.4598376750946045,0.7819193601608276,91,703,112088
2026-02-16T17:17:38.594Z,42.939998626708984,15,993.3377685546875,690,-3046,2659,0,0,-2,,,,-0.3056022524833679,-0.2863151729106903,0.4599597454071045,0.7828959226608276,90,703,111593
2026-02-16T17:17:38.574Z,42.84000015258789,15,993.3377685546875,705,-3041,2637,0,2,1,,,,-0.3059074282646179,-0.2867424190044403,0.4601428508758545,0.7825297117233276,90,703,112874
2026-02-16T17:17:38.554Z,42.71999740600586,15,993.3143920898438,696,-3066,2671,0,-7,-3,,,,-0.3058463931083679,-0.2868644893169403,0.4608142375946045,0.7821635007858276,90,670,112947
2026-02-16T17:17:38.534Z,42.63999938964844,15,993.3143920898438,708,-3050,2667,0,0,5,,,,-0.3058463931083679,-0.2869255244731903,0.4608752727508545,0.7820414304733276,85,670,113308
2026-02-16T17:17:38.514Z,42.540000915527344,15,993.3377685546875,672,-3070,2697,-1,4,5,,,,-0.3049919009208679,-0.2870475947856903,0.4613025188446045,0.7821024656295776,85,665,114408
2026-02-16T17:17:38.494Z,42.439998626708984,16,993.3377685546875,693,-3055,2662,3,6,0,,,,-0.3046867251396179,-0.2869865596294403,0.4614245891571045,0.7821635007858276,85,665,114482
2026-02-16T17:17:38.474Z,42.38999938964844,16,993.3533935546875,707,-3046,2675,-2,7,-2,,,,-0.3046867251396179,-0.2869865596294403,0.4611194133758545,0.7823466062545776,79,665,114112
2026-02-16T17:17:38.454Z,42.279998779296875,16,993.3767700195312,683,-3036,2687,-11,-6,-1,,,,-0.3041984438896179,-0.2868644893169403,0.4613635540008545,0.7824076414108276,79,665,114260
2026-02-16T17:17:38.434Z,42.18000030517578,16,993.3533935546875,708,-3007,2657,-2,-4,12,,,,-0.3043205142021179,-0.2865593135356903,0.4617908000946045,0.7822245359420776,79,653,120078
2026-02-16T17:17:38.414Z,42.18000030517578,16,993.3377685546875,707,-3043,2695,-10,-1,8,,,,-0.3044425845146179,-0.2864982783794403,0.4616076946258545,0.7823466062545776,70,653,119590
2026-02-16T17:17:38.394Z,42.04999923706055,16,993.3377685546875,714,-3091,2645,0,9,-17,,,,-0.3040763735771179,-0.2872307002544403,0.4620959758758545,0.7819193601608276,70,653,119510
2026-02-16T17:17:38.374Z,41.939998626708984,16,993.3377685546875,710,-3066,2670,-2,-16,5,,,,-0.3051750063896179,-0.2882682979106903,0.4631335735321045,0.7805155515670776,70,637,119027
2026-02-16T17:17:38.354Z,41.82999801635742,16,993.3143920898438,732,-3092,2631,20,13,13,,,,-0.3063957095146179,-0.2883293330669403,0.4622180461883545,0.7805155515670776,62,637,118947
2026-02-16T17:17:38.334Z,41.71999740600586,16,993.3143920898438,703,-3050,2666,2,-1,-3,,,,-0.3066398501396179,-0.2877800166606903,0.4613025188446045,0.7811869382858276,62,637,117838
2026-02-16T17:17:38.314Z,41.619998931884766,16,993.3065795898438,699,-3076,2595,8,1,-9,,,,-0.3073112368583679,-0.2882682979106903,0.4612414836883545,0.7807596921920776,62,615,119671
2026-02-16T17:17:38.294Z,41.5,16,993.3065795898438,701,-3029,2642,-6,-3,-4,,,,-0.3068229556083679,-0.2890617549419403,0.4624011516571045,0.7799662351608276,62,615,121647
2026-02-16T17:17:38.274Z,41.39999771118164,16,993.267578125,678,-3052,2670,-4,-7,1,,,,-0.3070060610771179,-0.2889396846294403,0.4623401165008545,0.7799662351608276,39,615,121730
2026-02-16T17:17:38.254Z,41.39999771118164,16,993.283203125,710,-3054,2670,-11,-8,16,,,,-0.3064567446708679,-0.2880851924419403,0.4618518352508545,0.7808207273483276,39,595,120733
2026-02-16T17:17:38.234Z,41.189998626708984,16,993.2442016601562,679,-3040,2623,14,6,-8,,,,-0.3070060610771179,-0.2886955440044403,0.4611804485321045,0.7807596921920776,39,595,121563
2026-02-16T17:17:38.214Z,41.09000015258789,16,993.2442016601562,672,-3068,2658,15,20,-12,,,,-0.30956950783729553,-0.2886345088481903,0.4624011516571045,0.7790507674217224,39,595,123343
2026-02-16T17:17:38.194Z,41.0099983215332,16,993.267578125,720,-3081,2621,4,-6,3,,,,-0.3059074282646179,-0.2901603877544403,0.4613025188446045,0.7805765867233276,32,595,123172
2026-02-16T17:17:38.174Z,40.87999725341797,16,993.2442016601562,697,-3023,2669,0,9,-4,,,,-0.3052970767021179,-0.2908317744731903,0.4628283977508545,0.7796610593795776,32,535,122659
2026-02-16T17:17:38.154Z,40.87999725341797,16,993.2442016601562,697,-3006,2681,9,0,-6,,,,-0.3055412173271179,-0.2899162471294403,0.4626452922821045,0.7800272703170776,32,535,122151
2026-02-16T17:17:38.134Z,40.77000045776367,16,993.2207641601562,672,-3061,2682,3,9,-13,,,,-0.3071281313896179,-0.2879020869731903,0.4611804485321045,0.7810038328170776,33,535,121982
2026-02-16T17:17:38.114Z,40.04999923706055,16,993.2052001953125,687,-3028,2656,0,11,-4,,,,-0.3063346743583679,-0.2885124385356903,0.4620349407196045,0.7805765867233276,33,535,120816
2026-02-16T17:17:38.094Z,40.04999923706055,16,993.2207641601562,711,-3024,2626,-1,5,-7,,,,-0.3059684634208679,-0.2896110713481903,0.4628283977508545,0.7798441648483276,33,518,120981
2026-02-16T17:17:38.074Z,40.02000045776367,17,993.2207641601562,678,-3079,2666,-2,-6,-2,,,,-0.3059684634208679,-0.2896721065044403,0.4627673625946045,0.7798441648483276,33,518,120405
2026-02-16T17:17:38.054Z,39.97999954223633,17,993.2052001953125,689,-3058,2686,0,-3,0,,,,-0.3066398501396179,-0.2891227900981903,0.4623401165008545,0.7800883054733276,39,518,119590
2026-02-16T17:17:38.034Z,40.09000015258789,16,993.2207641601562,708,-3052,2624,-2,-11,3,,,,-0.3066398501396179,-0.2878410518169403,0.4616687297821045,0.7809427976608276,39,522,118628
2026-02-16T17:17:38.014Z,40.05999755859375,16,993.2207641601562,677,-3053,2625,1,-13,10,,,,-0.3079215884208679,-0.2879020869731903,0.4613025188446045,0.7806376218795776,39,522,119027
2026-02-16T17:17:37.994Z,40.14999771118164,16,993.267578125,693,-3063,2638,1,9,0,,,,-0.30853191018104553,-0.2886955440044403,0.4606921672821045,0.7804545164108276,39,522,118231
2026-02-16T17:17:37.974Z,40.14999771118164,16,993.2207641601562,702,-3098,2639,5,4,0,,,,-0.3077384829521179,-0.2901603877544403,0.4603869915008545,0.7803934812545776,48,522,117838
2026-02-16T17:17:37.954Z,40.09000015258789,16,993.2442016601562,706,-3079,2628,-2,-1,9,,,,-0.30877605080604553,-0.2902824580669403,0.4605090618133545,0.7798441648483276,48,535,116518
2026-02-16T17:17:37.934Z,40.209999084472656,16,993.2442016601562,724,-3069,2616,-4,-1,4,,,,-0.30834880471229553,-0.2902214229106903,0.4606921672821045,0.7799662351608276,48,535,115831
2026-02-16T17:17:37.914Z,40.27000045776367,16,993.267578125,698,-3090,2604,-2,-9,-6,,,,-0.3072502017021179,-0.2890007197856903,0.4590442478656769,0.7817972898483276,54,535,114853
2026-02-16T17:17:37.894Z,40.27000045776367,16,993.2442016601562,675,-3021,2655,-4,2,-4,,,,-0.3075553774833679,-0.2893058955669403,0.4598376750946045,0.7810648679733276,54,535,113599
2026-02-16T17:17:37.874Z,40.48999786376953,16,993.267578125,684,-3112,2669,5,27,-30,,,,-0.30859294533729553,-0.2902214229106903,0.4600818157196045,0.7802103757858276,54,557,111875
2026-02-16T17:17:37.854Z,40.48999786376953,16,993.2052001953125,701,-3093,2609,5,-3,-6,,,,-0.30950847268104553,-0.2930900752544403,0.4616687297821045,0.7778910994529724,54,557,110616
2026-02-16T17:17:37.834Z,40.59000015258789,16,993.2207641601562,686,-3103,2624,2,0,8,,,,-0.31048503518104553,-0.2935783565044403,0.4616076946258545,0.7773417830467224,63,557,111312
2026-02-16T17:17:37.814Z,40.54999923706055,16,993.1817626953125,707,-3070,2625,-6,-3,-3,,,,-0.31079021096229553,-0.2935173213481903,0.4616076946258545,0.7772197127342224,63,574,111032
2026-02-16T17:17:37.794Z,40.79999923706055,16,993.267578125,696,-3060,2689,5,-8,20,,,,-0.31072917580604553,-0.2931511104106903,0.4622790813446045,0.7769755721092224,63,574,111452
2026-02-16T17:17:37.774Z,40.86000061035156,16,993.3065795898438,752,-3150,2580,-83,-37,72,,,,-0.30877605080604553,-0.2926017940044403,0.4625232219696045,0.7778300642967224,68,574,111032
2026-02-16T17:17:37.754Z,40.96999740600586,16,993.267578125,732,-3083,2686,-5,6,-15,,,,-0.3053581118583679,-0.2918693721294403,0.4625842571258545,0.7794169187545776,68,574,111663
2026-02-16T17:17:37.734Z,40.96999740600586,16,993.2442016601562,627,-3066,2619,43,21,-46,,,,-0.31024089455604553,-0.2940666377544403,0.4636218547821045,0.7759990096092224,68,596,111382
2026-02-16T17:17:37.714Z,40.97999954223633,16,993.2442016601562,690,-3072,2599,0,5,17,,,,-0.31042400002479553,-0.2941276729106903,0.4649646282196045,0.7751445174217224,62,596,111522
2026-02-16T17:17:37.694Z,40.96999740600586,16,993.283203125,686,-3083,2653,9,7,-3,,,,-0.30987468361854553,-0.2932731807231903,0.4627063274383545,0.7769755721092224,62,596,111663
2026-02-16T17:17:37.674Z,41.099998474121094,16,993.283203125,696,-3100,2597,-1,-24,2,,,,-0.30975261330604553,-0.2930290400981903,0.4622790813446045,0.7774028182029724,62,608,111804
2026-02-16T17:17:37.654Z,41.12999725341797,16,993.2442016601562,711,-3108,2615,-6,1,-4,,,,-0.31054607033729553,-0.2924186885356903,0.4623401165008545,0.7772807478904724,52,608,111593
2026-02-16T17:17:37.634Z,41.16999816894531,16,993.2207641601562,700,-3110,2610,5,5,-1,,,,-0.31066814064979553,-0.2935173213481903,0.4629504680633545,0.7764262557029724,52,608,113019
2026-02-16T17:17:37.614Z,41.209999084472656,16,993.1817626953125,703,-3077,2617,9,10,1,,,,-0.31042400002479553,-0.2944328486919403,0.4636218547821045,0.7758159041404724,52,593,113965
2026-02-16T17:17:37.594Z,41.209999084472656,16,993.2207641601562,702,-3084,2601,1,18,3,,,,-0.30999675393104553,-0.2949211299419403,0.4634387493133545,0.7759379744529724,52,593,115378
2026-02-16T17:17:37.574Z,41.209999084472656,16,993.2052001953125,703,-3098,2626,-5,3,-7,,,,-0.30944743752479553,-0.2952873408794403,0.4630115032196045,0.7762431502342224,42,593,116212
2026-02-16T17:17:37.554Z,41.099998474121094,16,993.1817626953125,688,-3089,2642,0,-8,-1,,,,-0.30950847268104553,-0.2953483760356903,0.4630115032196045,0.7762431502342224,42,570,116980
2026-02-16T17:17:37.534Z,41.099998474121094,16,993.1817626953125,704,-3128,2599,-16,-17,-4,,,,-0.30938640236854553,-0.2946159541606903,0.4626452922821045,0.7767314314842224,42,570,117524
2026-02-16T17:17:37.514Z,41.189998626708984,16,993.2052001953125,716,-3105,2605,0,-1,1,,,,-0.3077995181083679,-0.2948600947856903,0.4639880657196045,0.7764872908592224,29,570,117524
2026-02-16T17:17:37.494Z,41.23999786376953,16,993.2052001953125,708,-3092,2630,0,5,-1,,,,-0.3076164126396179,-0.2958366572856903,0.4638049602508545,0.7763041853904724,29,570,116441
2026-02-16T17:17:37.474Z,41.23999786376953,16,993.2052001953125,706,-3087,2643,1,-3,15,,,,-0.3071281313896179,-0.2967521548271179,0.4641711711883545,0.7758769392967224,29,543,117603
2026-02-16T17:17:37.454Z,41.22999954223633,16,993.2052001953125,691,-3095,2644,-4,-4,10,,,,-0.30902019143104553,-0.2976676821708679,0.4631946086883545,0.7753886580467224,19,543,117995
2026-02-16T17:17:37.434Z,41.22999954223633,16,993.2052001953125,736,-3098,2572,19,-16,1,,,,-0.30987468361854553,-0.2977897524833679,0.4628894329071045,0.7752055525779724,19,543,118947
2026-02-16T17:17:37.414Z,41.20000076293945,16,993.2052001953125,702,-3119,2569,4,8,-17,,,,-0.31371989846229553,-0.2979118227958679,0.4608752727508545,0.7747783064842224,19,510,118628
2026-02-16T17:17:37.394Z,41.15999984741211,16,993.2207641601562,706,-3107,2589,3,-3,9,,,,-0.31463542580604553,-0.2977287173271179,0.4593493938446045,0.7753886580467224,19,510,118708
2026-02-16T17:17:37.374Z,41.13999938964844,16,993.2207641601562,722,-3117,2578,4,11,-3,,,,-0.31433025002479553,-0.2984001040458679,0.4591663181781769,0.7753886580467224,14,510,118947
2026-02-16T17:17:37.354Z,41.13999938964844,16,993.2207641601562,727,-3118,2570,9,0,2,,,,-0.31457439064979553,-0.2994377017021179,0.4596545696258545,0.7745952010154724,14,510,118867
2026-02-16T17:17:37.334Z,41.189998626708984,16,993.2052001953125,728,-3141,2564,-7,9,-24,,,,-0.31396403908729553,-0.3005973696708679,0.4606921672821045,0.7737407088279724,14,486,117681
2026-02-16T17:17:37.314Z,41.189998626708984,16,993.2052001953125,734,-3110,2544,-5,7,4,,,,-0.31365886330604553,-0.3005363345146179,0.4605090618133545,0.7739848494529724,9,486,116980
2026-02-16T17:17:37.294Z,41.279998779296875,16,993.2052001953125,752,-3123,2564,-2,6,-2,,,,-0.31194987893104553,-0.3008415102958679,0.4620959758758545,0.7736796736717224,9,486,117759
2026-02-16T17:17:37.274Z,41.23999786376953,16,993.1817626953125,728,-3124,2573,-10,-15,9,,,,-0.31109538674354553,-0.3010856509208679,0.4628283977508545,0.7734355330467224,9,472,118787
2026-02-16T17:17:37.254Z,41.290000915527344,16,993.1661987304688,735,-3139,2552,-6,7,-13,,,,-0.31024089455604553,-0.3009635806083679,0.4638659954071045,0.7732524275779724,7,472,117838
2026-02-16T17:17:37.234Z,41.43000030517578,16,993.1817626953125,744,-3080,2595,-11,13,-7,,,,-0.30847087502479553,-0.3017570376396179,0.4656360149383545,0.7725200057029724,7,472,117603
2026-02-16T17:17:37.214Z,41.439998626708984,16,993.2052001953125,759,-3104,2608,-11,5,-2,,,,-0.3041984438896179,-0.3040153384208679,0.4671008586883545,0.7724589705467224,7,460,118628
2026-02-16T17:17:37.194Z,41.40999984741211,16,993.2052001953125,820,-3014,2587,-31,50,3,,,,-0.3006584048271179,-0.3067008852958679,0.4713122546672821,0.7702617049217224,7,460,115755
2026-02-16T17:17:37.174Z,41.40999984741211,15,993.2052001953125,790,-3115,2624,-11,31,-21,,,,-0.2976676821708679,-0.30828776955604553,0.4719226062297821,0.7703837752342224,5,460,116672
2026-02-16T17:17:37.154Z,41.63999938964844,15,993.2052001953125,841,-3051,2612,-12,36,8,,,,-0.2950432002544403,-0.31127849221229553,0.4746081531047821,0.7686137557029724,5,456,117759
2026-02-16T17:17:37.134Z,41.65999984741211,15,993.2442016601562,766,-3123,2641,-18,-19,-28,,,,-0.2935783565044403,-0.3069450259208679,0.4770495593547821,0.7693461775779724,5,456,115983
2026-02-16T17:17:37.114Z,41.599998474121094,15,993.267578125,765,-3094,2676,37,76,-75,,,,-0.2957145869731903,-0.3073722720146179,0.4826647639274597,0.7648295760154724,9,456,114630
2026-02-16T17:17:37.094Z,41.7599983215332,15,993.3065795898438,757,-3133,2629,12,61,-27,,,,-0.2977897524833679,-0.31860271096229553,0.49450555443763733,0.7517681121826172,9,456,113819
2026-02-16T17:17:37.074Z,41.849998474121094,15,993.3143920898438,746,-3033,2535,17,134,-4,,,,-0.3017570376396179,-0.33630284667015076,0.5078111886978149,0.7333354949951172,9,452,114704
2026-02-16T17:17:37.054Z,41.849998474121094,15,993.3065795898438,1002,-2801,2448,-244,13,-20,,,,-0.3036491274833679,-0.3047477602958679,0.5527939796447754,0.713621199131012,11,452,114556
2026-02-16T17:17:37.034Z,41.86000061035156,15,993.283203125,693,-3628,1847,411,-1253,356,,,,-0.4915148615837097,-0.2969962954521179,0.20544381439685822,0.7924174070358276,11,452,115453
2026-02-16T17:17:37.014Z,41.849998474121094,15,993.3377685546875,2074,-3492,610,415,-255,296,,,,-0.5971664190292358,-0.22631777822971344,-0.03887929394841194,0.7684916853904724,11,462,114039
2026-02-16T17:17:36.994Z,41.98999786376953,15,993.3065795898438,2386,-3113,775,-8,152,622,,,,-0.5900253653526306,-0.2666619122028351,-0.08782936632633209,0.7569560408592224,11,462,113819
2026-02-16T17:17:36.974Z,42.189998626708984,15,993.3065795898438,2582,-3062,693,1,-8,13,,,,-0.5571885108947754,-0.32763588428497314,-0.12731900811195374,0.7522563934326172,11,462,114408
2026-02-16T17:17:36.954Z,42.13999938964844,15,993.3533935546875,2617,-3042,669,-15,1,9,,,,-0.5566391944885254,-0.33056557178497314,-0.13012662529945374,0.7509136199951172,11,467,111734
2026-02-16T17:17:36.934Z,42.15999984741211,15,993.3923950195312,2659,-3035,705,0,-11,11,,,,-0.5564560890197754,-0.33148106932640076,-0.13012662529945374,0.7506084442138672,9,467,110339
2026-02-16T17:17:36.914Z,42.32999801635742,15,993.3143920898438,2587,-3044,654,0,-46,-32,,,,-0.5556626319885254,-0.32842934131622314,-0.12994351983070374,0.7525615692138672,9,467,111032
2026-02-16T17:17:36.894Z,42.41999816894531,15,993.283203125,2408,-3261,935,13,-74,-59,,,,-0.5595688819885254,-0.3020011782646179,-0.12676969170570374,0.7612285017967224,9,467,110962
2026-02-16T17:17:36.874Z,42.41999816894531,15,993.283203125,2426,-3118,807,-5,23,-28,,,,-0.5619492530822754,-0.2965690493583679,-0.12329070270061493,0.7622050642967224,9,466,111032
2026-02-16T17:17:36.854Z,42.43000030517578,15,993.3377685546875,2409,-3213,807,-38,37,-28,,,,-0.5610947608947754,-0.2982169985771179,-0.11950653046369553,0.7628154158592224,9,466,111032
2026-02-16T17:17:36.834Z,42.61000061035156,15,993.3533935546875,2423,-3158,826,-19,-14,4,,,,-0.5592026710510254,-0.3016960024833679,-0.11749237775802612,0.7631205916404724,9,462,112159
2026-02-16T17:17:36.814Z,42.84000015258789,15,993.3377685546875,2394,-3206,863,-26,-2,42,,,,-0.5548081398010254,-0.3038322329521179,-0.12445036321878433,0.7644023299217224,9,462,113599
2026-02-16T17:17:36.794Z,42.97999954223633,15,993.3377685546875,2506,-3116,751,-33,88,35,,,,-0.5496201515197754,-0.30840983986854553,-0.13000455498695374,0.7653788924217224,7,462,112017
2026-02-16T17:17:36.774Z,42.96999740600586,14,993.3377685546875,2579,-3096,730,-14,30,10,,,,-0.5468735694885254,-0.34258946776390076,-0.11352510005235672,0.7553691864013672,7,462,112372
2026-02-16T17:17:36.754Z,43.04999923706055,14,993.3143920898438,2580,-3083,730,-2,8,20,,,,-0.5459581017494202,-0.34777742624282837,-0.11065645515918732,0.7540874481201172,7,463,111522
2026-02-16T17:17:36.734Z,43.41999816894531,14,993.283203125,2641,-3031,642,-34,94,-38,,,,-0.5458360314369202,-0.35119539499282837,-0.10815402120351791,0.7529277801513672,5,463,111312
2026-02-16T17:17:36.714Z,43.40999984741211,14,993.3065795898438,2419,-3191,895,-140,-142,-367,,,,-0.5373521447181702,-0.32165443897247314,-0.08728004992008209,0.7745952010154724,5,463,111032
2026-02-16T17:17:36.694Z,43.369998931884766,14,993.3065795898438,1674,-3582,1034,-20,-38,-115,,,,-0.5679917335510254,-0.24835141003131866,-0.021240180358290672,0.7842997312545776,5,463,109317
2026-02-16T17:17:36.674Z,43.55999755859375,14,993.3143920898438,1652,-3618,1025,31,-68,-36,,,,-0.5707382559776306,-0.24267515540122986,-0.01727290451526642,0.7842386960983276,5,458,108246
2026-02-16T17:17:36.654Z,43.55999755859375,14,993.3143920898438,1528,-3632,1003,63,-138,-83,,,,-0.5787948966026306,-0.22778262197971344,-0.01483150478452444,0.7827738523483276,14,458,108114
2026-02-16T17:17:36.634Z,43.71999740600586,14,993.3377685546875,1512,-3661,919,209,29,28,,,,-0.5870346426963806,-0.21234075725078583,-0.023925719782710075,0.7808207273483276,14,458,107916
2026-02-16T17:17:36.614Z,43.71999740600586,14,993.283203125,1217,-3823,-10,318,8,-382,,,,-0.6828595995903015,-0.15002402663230896,-0.011657685041427612,0.714780867099762,14,453,104721
2026-02-16T17:17:36.594Z,44,14,993.283203125,1445,-3790,-1186,915,250,466,,,,-0.7556133270263672,-0.21337835490703583,-0.03601064905524254,0.6181014180183411,25,453,104721
2026-02-16T17:17:36.574Z,44.22999954223633,14,993.3143920898438,920,-3556,-1768,575,622,-73,,,,-0.8048685193061829,-0.25305110216140747,0.0009765599970705807,0.5366807579994202,25,453,105723
2026-02-16T17:17:36.554Z,44.290000915527344,14,993.3533935546875,814,-3278,-2431,109,111,-50,,,,-0.8356912136077881,-0.2666619122028351,0.06951886415481567,0.4749133288860321,25,453,105723
2026-02-16T17:17:36.534Z,44.290000915527344,14,993.3533935546875,785,-3369,-1827,-350,764,475,,,,-0.8103006482124329,-0.33837804198265076,0.12286345660686493,0.4623401165008545,25,475,105660
2026-02-16T17:17:36.514Z,44.290000915527344,14,993.3377685546875,179,-4073,-1771,-466,195,-162,,,,-0.6806623339653015,-0.4491565525531769,0.23150575160980225,0.5303331017494202,32,475,106103
2026-02-16T17:17:36.494Z,44.439998626708984,14,993.3767700195312,288,-3868,-1211,4,2,-20,,,,-0.6665632128715515,-0.4580066502094269,0.2951652705669403,0.5086046457290649,32,475,105597
2026-02-16T17:17:36.474Z,44.47999954223633,14,993.415771484375,290,-3883,-1236,5,15,-4,,,,-0.6667463183403015,-0.4579456150531769,0.2957756221294403,0.5080553293228149,32,500,105157
2026-02-16T17:17:36.454Z,44.73999786376953,14,993.415771484375,325,-3879,-1258,-6,9,10,,,,-0.6657087206840515,-0.4578845798969269,0.2967521548271179,0.5088487863540649,34,500,103134
2026-02-16T17:17:36.434Z,44.75,14,993.3923950195312,321,-3857,-1215,18,6,5,,,,-0.6647321581840515,-0.4577625095844269,0.2972404360771179,0.5100084543228149,34,500,102714
2026-02-16T17:17:36.414Z,45.05999755859375,14,993.3767700195312,266,-3896,-1211,0,-7,-3,,,,-0.6653425097465515,-0.4580066502094269,0.2962639033794403,0.5095201730728149,34,517,103739
2026-02-16T17:17:36.394Z,45.14999771118164,14,993.3767700195312,289,-3859,-1193,-11,-11,-5,,,,-0.6650373339653015,-0.4578845798969269,0.2966300845146179,0.5098863840103149,34,517,104166
2026-02-16T17:17:36.374Z,45.13999938964844,14,993.415771484375,310,-3899,-1244,-16,-10,-2,,,,-0.6649762988090515,-0.4569690525531769,0.2985221743583679,0.5096422433853149,41,517,104536
2026-02-16T17:17:36.354Z,45.13999938964844,14,993.415771484375,275,-3849,-1187,-18,-6,0,,,,-0.6650373339653015,-0.4567249119281769,0.2991325259208679,0.5093981027603149,41,517,104166
2026-02-16T17:17:36.334Z,45.37999725341797,14,993.431396484375,270,-3884,-1189,-7,0,4,,,,-0.6644269824028015,-0.4568469822406769,0.2990104556083679,0.5101915597915649,41,522,102834
2026-02-16T17:17:36.314Z,45.40999984741211,14,993.3767700195312,308,-3895,-1187,0,4,13,,,,-0.6629621386528015,-0.4572131931781769,0.2981559634208679,0.5123277902603149,57,522,101535
2026-02-16T17:17:36.294Z,45.63999938964844,14,993.415771484375,313,-3913,-1191,0,8,13,,,,-0.6618635654449463,-0.4588611423969269,0.2976066470146179,0.5125108957290649,57,522,101013
2026-02-16T17:17:36.274Z,45.82999801635742,14,993.3923950195312,307,-3871,-1189,-12,12,13,,,,-0.6610090732574463,-0.4598376750946045,0.2980949282646179,0.5124498605728149,57,539,100611
2026-02-16T17:17:36.254Z,45.88999938964844,14,993.415771484375,351,-3909,-1221,7,22,12,,,,-0.6598494052886963,-0.4600818157196045,0.2982169985771179,0.5136705636978149,57,539,99929
2026-02-16T17:17:36.234Z,45.849998474121094,14,993.3767700195312,352,-3870,-1219,7,3,10,,,,-0.6575300693511963,-0.4637439250946045,0.3001090884208679,0.5122057199478149,69,539,99367
2026-02-16T17:17:36.214Z,46.119998931884766,14,993.431396484375,405,-3931,-1167,-17,5,31,,,,-0.6508162021636963,-0.4706408977508545,0.2957145869731903,0.5170885324478149,69,539,99423
2026-02-16T17:17:36.194Z,46.59000015258789,14,993.4547729492188,389,-3902,-1202,38,64,-101,,,,-0.6552717685699463,-0.4713732898235321,0.3021232485771179,0.5070177316665649,69,576,98812
2026-02-16T17:17:36.174Z,46.71999740600586,13,993.4547729492188,86,-3863,-1172,-48,5,-179,,,,-0.6624739170074463,-0.4625842571258545,0.31646648049354553,0.49682489037513733,93,576,96917
2026-02-16T17:17:36.154Z,46.71999740600586,13,993.415771484375,30,-3929,-1096,-39,14,-14,,,,-0.6682111620903015,-0.44439584016799927,0.33050453662872314,0.49664178490638733,93,576,94940
2026-02-16T17:17:36.134Z,46.71999740600586,13,993.3923950195312,-6,-3905,-1201,5,12,1,,,,-0.6671735644340515,-0.44470101594924927,0.33196935057640076,0.49682489037513733,93,605,93047
2026-02-16T17:17:36.114Z,46.96999740600586,13,993.415771484375,-11,-3962,-1185,-4,6,0,,,,-0.6670514941215515,-0.44531136751174927,0.33190831542015076,0.49639764428138733,118,605,91600
2026-02-16T17:17:36.094Z,47.27000045776367,13,993.415771484375,15,-3915,-1118,-6,15,0,,,,-0.6663190722465515,-0.44689828157424927,0.33276280760765076,0.49542108178138733,118,605,92173
2026-02-16T17:17:36.074Z,47.5099983215332,13,993.4937744140625,-18,-3926,-1159,0,3,-1,,,,-0.6660138964653015,-0.4478748142719269,0.33209142088890076,0.49542108178138733,118,660,90198
2026-02-16T17:17:36.054Z,47.70000076293945,13,993.4547729492188,-16,-3916,-1148,0,8,-4,,,,-0.6652204394340515,-0.4486682713031769,0.33270177245140076,0.49536004662513733,118,660,89377
2026-02-16T17:17:36.034Z,48.02000045776367,13,993.431396484375,-7,-3946,-1134,-7,29,-12,,,,-0.6643659472465515,-0.4489124119281769,0.33483800292015076,0.49481073021888733,149,660,87088
2026-02-16T17:17:36.014Z,48.20000076293945,13,993.431396484375,5,-3933,-1129,6,1,10,,,,-0.6632673144340515,-0.4493396580219269,0.33691319823265076,0.49450555443763733,149,660,83945
2026-02-16T17:17:35.994Z,48.30999755859375,13,993.4547729492188,-4,-3935,-1148,-10,7,5,,,,-0.6633893847465515,-0.4502551853656769,0.33660802245140076,0.4936510920524597,149,798,84831
2026-02-16T17:17:35.974Z,48.30999755859375,13,993.4547729492188,-8,-3958,-1174,5,15,6,,,,-0.6638776659965515,-0.4518420994281769,0.33630284667015076,0.4917590022087097,177,798,82457
2026-02-16T17:17:35.954Z,48.32999801635742,13,993.4547729492188,-51,-3946,-1054,1,22,-4,,,,-0.6618025302886963,-0.4530628025531769,0.34130772948265076,0.4900500178337097,177,798,83312
2026-02-16T17:17:35.934Z,48.70000076293945,13,993.4703979492188,5,-3873,-1143,100,43,32,,,,-0.6629011034965515,-0.4550159275531769,0.33911046385765076,0.4882799983024597,177,986,83155
2026-02-16T17:17:35.914Z,48.779998779296875,13,993.5171508789062,131,-3899,-1405,158,-21,100,,,,-0.6697980761528015,-0.4725939929485321,0.31420817971229553,0.4786975085735321,208,986,82534
2026-02-16T17:17:35.894Z,48.779998779296875,13,993.5171508789062,-244,-4353,-1744,109,241,-593,,,,-0.6800519824028015,-0.4924303889274597,0.2964470088481903,0.4549548923969269,208,986,112444
2026-02-16T17:17:35.874Z,48.80999755859375,13,993.4703979492188,-784,-3840,-1939,-115,37,-335,,,,-0.732542097568512,-0.3855580985546112,0.365843802690506,0.42516979575157166,208,1147,110408
2026-02-16T17:17:35.854Z,49.45000076293945,13,993.4937744140625,-1232,-3502,-1507,-115,414,-255,,,,-0.7515850067138672,-0.34100255370140076,0.40441790223121643,0.3939198851585388,208,1147,108312
2026-02-16T17:17:35.834Z,49.82999801635742,12,993.4937744140625,-1571,-3603,-1322,83,-86,119,,,,-0.7340068817138672,-0.34942537546157837,0.44122201204299927,0.3798818290233612,233,1147,108779
2026-02-16T17:17:35.814Z,49.779998779296875,12,993.5327758789062,-1520,-3530,-1311,34,44,-12,,,,-0.730405867099762,-0.361937552690506,0.44036751985549927,0.3760976791381836,233,1329,108246
2026-02-16T17:17:35.794Z,49.87999725341797,12,993.6107788085938,-1376,-3540,-1586,124,-144,55,,,,-0.7478008270263672,-0.3664541244506836,0.40789690613746643,0.3742055892944336,233,1329,106744
2026-02-16T17:17:35.774Z,49.87999725341797,13,993.6341552734375,-1265,-3478,-1692,51,87,133,,,,-0.7487773895263672,-0.3840322196483612,0.3936757445335388,0.3698110580444336,233,1329,103617
2026-02-16T17:17:35.754Z,50.119998931884766,13,993.5327758789062,-1334,-3545,-1628,-21,154,-57,,,,-0.7396221160888672,-0.40209856629371643,0.40252581238746643,0.359313040971756,233,1329,101129
2026-02-16T17:17:35.734Z,50.18000030517578,13,993.5327758789062,-1504,-3507,-1295,-86,376,-62,,,,-0.712217390537262,-0.3903798460960388,0.4707629680633545,0.34429842233657837,111,1477,107982
2026-02-16T17:17:35.714Z,50.23999786376953,13,993.5171508789062,-1693,-3527,-1226,37,39,45,,,,-0.7034894227981567,-0.3961171507835388,0.4838244318962097,0.33758458495140076,125,1477,107132
2026-02-16T17:17:35.694Z,50.459999084472656,13,993.5327758789062,-1712,-3488,-1166,-4,24,-6,,,,-0.7023907899856567,-0.3996571898460388,0.4845568537712097,0.33465489745140076,125,1477,107002
2026-02-16T17:17:35.674Z,50.459999084472656,13,993.5171508789062,-1652,-3469,-1230,19,-29,-7,,,,-0.7037335634231567,-0.3981923460960388,0.4846789240837097,0.33337315917015076,138,1477,105032
2026-02-16T17:17:35.654Z,50.459999084472656,14,993.5171508789062,-1723,-3537,-1281,12,3,27,,,,-0.7040387392044067,-0.3991078734397888,0.4833361506462097,0.33361729979515076,147,1477,102655
2026-02-16T17:17:35.634Z,50.369998931884766,14,993.5327758789062,-1703,-3477,-1193,-11,-5,-14,,,,-0.7047101259231567,-0.3992299437522888,0.4826647639274597,0.33294591307640076,147,718,103739
2026-02-16T17:17:35.614Z,50.369998931884766,14,993.5171508789062,-1675,-3517,-1266,-4,-9,-8,,,,-0.7054425477981567,-0.3966664671897888,0.4830309748649597,0.33398351073265076,156,794,100212
2026-02-16T17:17:35.594Z,50.369998931884766,14,993.5327758789062,-1649,-3459,-1260,22,33,48,,,,-0.7039777040481567,-0.3988637328147888,0.4841906428337097,0.33288487792015076,156,794,98209
2026-02-16T17:17:35.574Z,50.369998931884766,15,993.5327758789062,-1752,-3449,-1158,-31,76,-85,,,,-0.7044049501419067,-0.4010609984397888,0.4834582209587097,0.33026039600372314,112,865,93243
2026-02-16T17:17:35.554Z,50.369998931884766,15,993.3923950195312,-1706,-3524,-1231,-4,24,-25,,,,-0.7052594423294067,-0.3994130492210388,0.4853503108024597,0.32775795459747314,126,865,91600
2026-02-16T17:17:35.534Z,50.369998931884766,15,993.3923950195312,-1753,-3592,-1241,64,4,36,,,,-0.7037945985794067,-0.40270891785621643,0.4858385920524597,0.32617104053497314,146,918,91790
2026-02-16T17:17:35.514Z,42.290000915527344,15,993.3533935546875,-1712,-3345,-1189,-6,30,-98,,,,-0.7039166688919067,-0.40295305848121643,0.4885851740837097,0.32141029834747314,146,965,91034
2026-02-16T17:17:35.494Z,42.37999725341797,15,993.3923950195312,-1637,-3517,-1348,0,84,163,,,,-0.7009869813919067,-0.40472307801246643,0.4909655451774597,0.32183754444122314,171,965,88306
2026-02-16T17:17:35.474Z,42.37999725341797,15,993.3767700195312,-1886,-3314,-1089,34,-19,-118,,,,-0.6981183290481567,-0.41155901551246643,0.4927355647087097,0.31677165627479553,171,801,87954
