timestamp,temperature_temperature,humidity_humidity,pressure_pressure,accelerometer_Ax,accelerometer_Ay,accelerometer_Az,gyroscope_x,gyroscope_y,gyroscope_z,led_R,led_G,led_B,quaternion_x,quaternion_y,quaternion_z,quaternion_w,bsec_bsec,co2_co2,gas_gas
2026-03-06T22:28:52.744Z,51.5,14,985.8186035,-1705,-1238,3318,780,-256,347,,,,-0.089843519,0.2694084942340851,-0.122680351,0.9509252905845642,25,500,22722
2026-03-06T22:28:52.704Z,51.5,14,985.8029785,-2082,-1571,3056,580,-53,330,,,,-0.101440169,0.2766716480255127,-0.127013832,0.9470800757408142,25,500,22840
2026-03-06T22:28:52.664Z,51.57999801635742,14,985.8341674804688,-2134,-1079,3403,81,-201,23,,,,-0.094299078,0.2808220386505127,-0.122802421,0.9471411108970642,25,500,22583
2026-03-06T22:28:52.624Z,51.69999694824219,14,985.8029785,-1494,-1104,4125,-394,151,-316,,,,-0.083007596,0.2733147144317627,-0.116027534,0.9512304663658142,25,500,22491
2026-03-06T22:28:52.584Z,51.80999755859375,14,985.8341674804688,-2172,-470,3608,6,414,-322,,,,-0.056335304,0.2853996455669403,-0.060363613,0.9547705054283142,25,500,22287
2026-03-06T22:28:52.544Z,51.98999786376953,14,985.8029785,-2580,-482,3272,27,-642,-751,,,,-0.053161483,0.3032829165458679,-0.03356925,0.9508032202720642,25,500,22021
2026-03-06T22:28:52.504Z,52.04999923706055,14,985.8186035,-2335,-166,3535,-120,-395,-662,,,,0.002746575,0.32653725147247314,-0.021423286,0.9448828101158142,25,500,21912
2026-03-06T22:28:52.464Z,52.04999923706055,14,985.8029785,-2678,434,3127,-148,-12,-268,,,,0.00903318,0.32617104053497314,-0.01489254,0.9451269507408142,25,500,21591
2026-03-06T22:28:52.424Z,52.11000061035156,14,985.8341674804688,-2508,226,3175,108,137,-80,,,,0.002624505,0.32141029834747314,-0.01025388,0.9468359351158142,25,500,21570
2026-03-06T22:28:52.384Z,52.11000061035156,14,985.8029785,-2485,-270,3258,296,230,190,,,,-0.00695799,0.31481853127479553,-0.01208493,0.9489721655845642,25,500,21549
2026-03-06T22:28:52.344Z,52.18000030517578,14,985.8029785,-2255,238,3354,-154,181,120,,,,-0.00305175,0.3025504946708679,-0.020324655,0.9528784155845642,25,500,21507
2026-03-06T22:28:52.304Z,52.18000030517578,14,985.8029785,-1926,-200,3634,236,173,209,,,,-0.019287059,0.2902214229106903,-0.028625416,0.9562963843345642,25,500,21761
2026-03-06T22:28:52.264Z,52.11000061035156,14,985.7873535,-1892,260,3723,-37,208,444,,,,-0.0134277,0.2899772822856903,-0.045410041,0.9558081030845642,25,500,21868
2026-03-06T22:28:52.224Z,52.11000061035156,14,985.8029785,-2290,-108,3313,-344,-276,584,,,,-0.01562496,0.2987663149833679,-0.066100903,0.9518408179283142,25,500,21890
2026-03-06T22:28:52.184Z,52.029998779296875,14,985.7873535,-2133,356,4398,441,-52,759,,,,-0.045715217,0.2742302417755127,-0.088500753,0.9564184546470642,25,500,21999
2026-03-06T22:28:52.144Z,51.97999954223633,14,985.7639770507812,-1936,-1169,3080,456,176,-89,,,,-0.091735601,0.25683528184890747,-0.064697102,0.9598364233970642,25,500,21933
2026-03-06T22:28:52.104Z,51.96999740600586,14,985.7639770507812,-1794,-926,3584,391,434,-453,,,,-0.102905013,0.23986755311489105,-0.030334394,0.9647802710533142,25,500,22175
2026-03-06T22:28:52.064Z,51.97999954223633,14,985.8029785,-1711,-150,3171,452,515,-784,,,,-0.117553413,0.23992858827114105,0.1931147426366806,0.9440283179283142,25,500,22153
2026-03-06T22:28:52.024Z,51.94999694824219,14,985.7873535,-2387,127,4286,250,269,-1810,,,,-0.099975333,0.23162782192230225,0.2894890010356903,0.923276424,25,500,22021
2026-03-06T22:28:51.984Z,51.87999725341797,14,985.8029785,-2112,-193,4048,704,166,-738,,,,-0.097411856,0.23120057582855225,0.31371989846229553,0.9157081246376038,25,500,22087
2026-03-06T22:28:51.944Z,51.87999725341797,14,985.8029785,-2344,1048,3223,-871,-269,-782,,,,-0.070312321,0.23718200623989105,0.33471593260765076,0.9091773629188538,25,500,22198
2026-03-06T22:28:51.904Z,51.79999923706055,14,985.8341674804688,-2107,645,3425,-346,290,-601,,,,-0.064575031,0.23211610317230225,0.35119539499282837,0.9047217965126038,25,500,22131
2026-03-06T22:28:51.864Z,51.91999816894531,14,985.8029785,-1621,496,3710,118,110,-400,,,,-0.067748852,0.21166938543319702,0.359923393,0.9060645699501038,25,500,22021
2026-03-06T22:28:51.824Z,52.05999755859375,14,985.8029785,-1120,193,3893,154,336,140,,,,-0.081115514,0.1979365050792694,0.34191808104515076,0.9149757027626038,25,500,21761
2026-03-06T22:28:51.784Z,52.14999771118164,14,985.8029785,-1530,651,3753,91,-185,656,,,,-0.087585226,0.21142524480819702,0.32293617725372314,0.9182716012001038,25,500,21423
2026-03-06T22:28:51.744Z,52.16999816894531,14,985.8029785,-1900,313,3427,-305,-616,689,,,,-0.101440169,0.22302189469337463,0.2932731807231903,0.924069881,25,500,21570
2026-03-06T22:28:51.704Z,52.22999954223633,14,985.8186035,-2094,-772,3741,536,-174,1238,,,,-0.145812616,0.1959223449230194,0.25225764513015747,0.936276913,25,500,21528
2026-03-06T22:28:51.664Z,52.28999710083008,14,985.8186035,-2303,-1354,3161,209,-95,594,,,,-0.161864817,0.1956782042980194,0.23907409608364105,0.937131405,25,500,21465
2026-03-06T22:28:51.624Z,52.28999710083008,14,985.8186035,-2026,-1003,3380,128,-229,781,,,,-0.164428294,0.1954340636730194,0.21466009318828583,0.9426245093345642,25,500,21507
2026-03-06T22:28:51.584Z,52.32999801635742,14,985.8186035,-1934,-1152,3388,-150,-169,833,,,,-0.165465891,0.1964716613292694,0.1918940395116806,0.9471411108970642,25,500,21299
2026-03-06T22:28:51.544Z,52.29999923706055,14,985.8029785,-1747,-390,3736,-325,-122,745,,,,-0.140197396,0.20971626043319702,0.15600545704364777,0.9549536108970642,25,500,21238
2026-03-06T22:28:51.504Z,52.16999816894531,14,985.8186035,-1983,-57,3954,-473,-440,382,,,,-0.116882026,0.2739861011505127,0.14062464237213135,0.9441503882408142,25,500,21361
2026-03-06T22:28:51.464Z,52.25,14,985.7873535,-2411,-419,3382,-224,-193,119,,,,-0.111510947,0.2794182300567627,0.13543666899204254,0.9439672827720642,25,500,21157
2026-03-06T22:28:51.424Z,52.25999832,14,985.7639770507812,-2147,-500,3359,-264,10,54,,,,-0.106750213,0.2778313159942627,0.13305629789829254,0.9453100562095642,25,500,21137
2026-03-06T22:28:51.384Z,52.15999984741211,14,985.7639770507812,-2220,-351,3428,-177,3,4,,,,-0.09912084,0.2766716480255127,0.13970911502838135,0.9455541968345642,25,500,21486
2026-03-06T22:28:51.344Z,52.119998931884766,14,985.8029785,-2258,-230,3365,-106,-3,-40,,,,-0.094299078,0.2811272144317627,0.14764367043972015,0.9434790015220642,25,500,21528
2026-03-06T22:28:51.304Z,52.02000045776367,14,985.7873535,-2963,-283,3050,-172,-146,61,,,,-0.08459451,0.3006584048271179,0.14550743997097015,0.938718319,25,500,21633
2026-03-06T22:28:51.264Z,51.90999984741211,14,985.7873535,-1620,-27,3729,-200,514,-215,,,,-0.06420882,0.2739861011505127,0.177550808,0.9429907202720642,25,500,21697
2026-03-06T22:28:51.224Z,51.869998931884766,14,985.8029785,-2081,317,3680,-184,318,-611,,,,-0.055358745,0.2645256817340851,0.20843452215194702,0.939877987,25,500,21977
2026-03-06T22:28:51.184Z,51.86000061035156,14,985.8186035,-2154,-258,3697,42,270,-303,,,,-0.057983249,0.25909358263015747,0.21850529313087463,0.93896246,25,500,22021
2026-03-06T22:28:51.144Z,51.77000045776367,14,985.8186035,-1949,624,3535,-269,178,-201,,,,-0.040954486,0.24713070690631866,0.25915461778640747,0.932736874,25,500,21933
2026-03-06T22:28:51.104Z,51.77000045776367,14,985.8029785,-1879,341,3766,174,66,-368,,,,-0.062438805,0.23925720155239105,0.32330238819122314,0.9133887887001038,25,500,22131
2026-03-06T22:28:51.064Z,51.66999816894531,14,985.7873535,-1661,603,3861,553,-40,-662,,,,-0.074828908,0.23309266567230225,0.363585502,0.8987403512001038,25,500,22287
2026-03-06T22:28:51.024Z,51.64999771118164,14,985.8186035,-1469,515,3383,445,144,-575,,,,-0.091674566,0.22863711416721344,0.40362444519996643,0.8810402154922485,25,500,22355
2026-03-06T22:28:50.984Z,51.64999771118164,14,985.8341674804688,-1655,412,3467,321,-177,-564,,,,-0.111571983,0.22174015641212463,0.44488412141799927,0.8604714274406433,25,500,22491
2026-03-06T22:28:50.944Z,51.66999816894531,14,985.8186035,-1389,-421,4156,649,310,-191,,,,-0.128661782,0.20233102142810822,0.4749743640422821,0.8466775417327881,25,500,22537
2026-03-06T22:28:50.904Z,51.66999816894531,14,985.8341674804688,-1885,-631,3506,236,176,-138,,,,-0.19598338,0.12786832451820374,0.6433699131011963,0.728818953,25,500,22377
2026-03-06T22:28:50.864Z,51.66999816894531,14,985.8575439453125,-1664,-251,3811,497,663,-1125,,,,-0.198058575,0.10559055209159851,0.714963973,0.6620466709136963,25,500,22423
2026-03-06T22:28:50.824Z,51.779998779296875,14,985.8186035,-1120,-409,3840,621,315,-1708,,,,-0.207152784,0.082580358,0.7901591062545776,0.5707992911338806,25,500,22491
2026-03-06T22:28:50.784Z,51.86000061035156,14,985.8029785,-896,1152,3589,825,30,-2038,,,,-0.231139541,0.05957016,0.9165626168251038,0.32067787647247314,25,500,22131
2026-03-06T22:28:50.744Z,51.82999801635742,14,985.8029785,-1698,-1777,4246,1285,418,-2315,,,,-0.250121415,0.023437440395355225,0.9498876929283142,0.1859126091003418,25,500,22087
2026-03-06T22:28:50.704Z,51.869998931884766,14,985.8186035,-2033,1842,3431,-807,-710,-2073,,,,0.23998962342739105,-0.035339266,-0.968625426,0.053100448,25,500,22153
2026-03-06T22:28:50.664Z,52.029998779296875,14,985.8186035,-2005,389,3685,1732,191,-1903,,,,0.22558535635471344,0.02050776,-0.956967771,0.181090847,25,500,21999
2026-03-06T22:28:50.624Z,52.029998779296875,14,985.8186035,-1342,85,3560,1879,460,-1778,,,,0.20574899017810822,0.063903645,-0.931882381,0.2916862666606903,25,500,21761
2026-03-06T22:28:50.584Z,52.029998779296875,14,985.8029785,-2366,415,3852,1391,-328,-1709,,,,0.21649114787578583,0.14752160012722015,-0.846128225,0.4640491008758545,25,500,21782
2026-03-06T22:28:50.544Z,51.98999786376953,14,985.7873535,-2380,-79,3643,1808,-1293,-36,,,,0.15423543751239777,0.1983027160167694,-0.761716783,0.5971664190292358,25,500,21782
2026-03-06T22:28:50.504Z,52.09000015258789,14,985.7639770507812,-1566,-798,3505,1458,1159,-1698,,,,0.10974092781543732,0.20513863861560822,-0.720579207,0.6530745029449463,25,500,21955
2026-03-06T22:28:50.464Z,52.09000015258789,14,985.7873535,-2253,-1046,3530,1235,478,-1918,,,,0.035461336,0.2647698223590851,-0.506346345,0.8198831677436829,25,500,21977
2026-03-06T22:28:50.424Z,52.07999801635742,14,985.8029785,-2312,-589,3459,581,-80,-1166,,,,0.035217196,0.2741692066192627,-0.476988524,0.8342263698577881,25,500,22021
2026-03-06T22:28:50.384Z,52.21999740600586,14,985.8186035,-1824,-818,3416,500,-47,-643,,,,0.026672294,0.2826530933380127,-0.464537382,0.8387429714202881,25,500,22131
2026-03-06T22:28:50.344Z,52.18000030517578,14,985.8186035,-2612,-36,3174,735,-199,-361,,,,0.041442763060331345,0.31371989846229553,-0.417235255,0.8518654704093933,25,500,22242
2026-03-06T22:28:50.304Z,52.05999755859375,14,985.8186035,-2158,-1176,3414,90,-335,-513,,,,0.042602431029081345,0.32946693897247314,-0.378661126,0.8637673258781433,25,500,22242
2026-03-06T22:28:50.264Z,51.98999786376953,14,985.8029785,-2322,-700,3339,-166,-12,-72,,,,0.042419325560331345,0.32788002490997314,-0.365538627,0.8700539469718933,25,500,22423
2026-03-06T22:28:50.224Z,51.849998474121094,14,985.8186035,-2287,-755,3346,-33,63,29,,,,0.036682036,0.32696449756622314,-0.350585043,0.8767677545547485,25,500,22514
2026-03-06T22:28:50.184Z,51.82999801635742,14,985.8575439453125,-2245,-636,3340,-45,101,-58,,,,0.018859815,0.32043373584747314,-0.294005603,0.9002662301063538,25,500,22606
2026-03-06T22:28:50.144Z,51.79999923706055,14,985.8341674804688,-2202,-713,3431,28,134,-136,,,,0.00073242,0.31231608986854553,-0.232848525,0.920957088,25,500,22560
2026-03-06T22:28:50.104Z,51.96999740600586,14,985.7873535,-2136,-639,2902,113,396,-369,,,,-0.01232907,0.2982780337333679,-0.177672878,0.937680721,25,500,22400
2026-03-06T22:28:50.064Z,52.18000030517578,14,985.7873535,-2081,-612,3408,-98,618,-487,,,,-0.018127395,0.2670891582965851,-0.129882485,0.9546484351158142,25,500,21977
2026-03-06T22:28:50.024Z,52.30999755859375,14,985.7639770507812,-372,65,4177,-414,1741,-413,,,,0.003845205,0.15624959766864777,-0.044006236,0.9866918325424194,25,500,21912
2026-03-06T22:28:49.984Z,52.349998474121094,14,985.8186035,-282,323,4369,-466,644,-192,,,,0.00695799,0.14453087747097015,-0.000671385,0.9894383549690247,25,500,21675
2026-03-06T22:28:49.944Z,52.36000061035156,14,985.8575439453125,-1759,805,3431,-343,137,-246,,,,0.029357836,0.17340043187141418,0.047363158,0.9832128286361694,25,500,21654
2026-03-06T22:28:49.904Z,52.41999816894531,14,985.8575439453125,-2105,1080,3594,-960,-25,232,,,,0.042114149779081345,0.177489772,0.052551135420799255,0.9817479848861694,25,500,21382
2026-03-06T22:28:49.864Z,52.439998626708984,14,985.8575439453125,-748,616,4098,-49,4,341,,,,0.021606389433145523,0.14562951028347015,0.050964225083589554,0.9877294301986694,25,500,21279
2026-03-06T22:28:49.824Z,52.48999786376953,14,985.8341674804688,-543,-107,4082,296,600,834,,,,-0.0012207,0.14355431497097015,0.048644897,0.9884007573127747,25,500,21279
2026-03-06T22:28:49.784Z,52.48999786376953,14,985.8186035,-2002,-902,3133,-208,-638,866,,,,-0.048522826,0.16015583276748657,0.084716581,0.9822362661361694,25,500,21259
2026-03-06T22:28:49.744Z,52.44999694824219,14,985.8341674804688,-816,-887,4045,970,1098,529,,,,-0.064452961,0.12945523858070374,0.10827609151601791,0.9835180044174194,25,500,21528
2026-03-06T22:28:49.704Z,52.369998931884766,14,985.8341674804688,61,-1158,3677,5,666,433,,,,-0.06701643,0.10528537631034851,0.13690149784088135,0.9826635122299194,25,500,21612
2026-03-06T22:28:49.664Z,52.29999923706055,14,985.8341674804688,469,-399,4248,-123,419,-20,,,,-0.059631195,0.11041231453418732,0.24560484290122986,0.9611791968345642,25,500,21718
2026-03-06T22:28:49.624Z,52.22999954223633,14,985.8186035,-877,-1160,4761,838,-432,-711,,,,-0.078918256,0.15844686329364777,0.3035880923271179,0.936154842,25,500,21977
2026-03-06T22:28:49.584Z,52.22999954223633,14,985.8029785,-695,627,3916,-1574,-2180,-600,,,,-0.04077138,0.13494838774204254,0.4578235447406769,0.8777443170547485,25,500,22087
2026-03-06T22:28:49.544Z,52.21999740600586,14,985.7873535,65,-526,3702,881,730,-289,,,,-0.05957016,0.098144278,0.5260606408119202,0.8425881862640381,25,500,22109
2026-03-06T22:28:49.504Z,52.38999938964844,14,985.8029785,774,133,4545,675,568,-364,,,,-0.05957016,0.098571524,0.5961288213729858,0.7945536375045776,25,500,21912
2026-03-06T22:28:49.464Z,52.52000045776367,14,985.8341674804688,-1769,660,4162,-1142,-1529,-556,,,,-0.104675025,0.14379845559597015,0.6571028232574463,0.732420027,25,500,21675
2026-03-06T22:28:49.424Z,52.52000045776367,14,985.8731689453125,-1855,-74,4115,1609,-727,-422,,,,-0.133422509,0.065978833,0.8195779919624329,0.5532212257385254,25,500,21423
2026-03-06T22:28:49.384Z,52.48999786376953,14,985.8029785,-994,-1170,5215,-567,1974,-399,,,,-0.090698011,0.026550224,0.8928810358047485,0.44012337923049927,25,500,21591
2026-03-06T22:28:49.344Z,52.55999755859375,14,985.8186035,-3658,2927,4023,-3896,548,699,,,,-0.022033636,0.11358613520860672,0.8978858590126038,0.42455944418907166,25,500,21675
2026-03-06T22:28:49.304Z,52.52000045776367,14,985.7873535,589,2405,4356,-762,6621,872,,,,0.13061490654945374,0.06396468,0.8980689644813538,0.41497695446014404,25,500,21654
2026-03-06T22:28:49.264Z,52.47999954223633,14,985.7639770507812,279,323,1863,1516,2817,1166,,,,-0.00378417,0.10717745870351791,0.940610409,0.32202064990997314,25,500,21675
2026-03-06T22:28:49.224Z,52.50999832,14,985.7639770507812,-1895,-903,1953,1213,-3507,770,,,,-0.139342904,0.052490100264549255,0.9436621069908142,0.2954094111919403,25,500,21570
2026-03-06T22:28:49.184Z,52.59000015258789,14,985.8186035,-1315,257,3693,405,982,-99,,,,-0.094177008,0.030212324112653732,0.9584326148033142,0.2675164043903351,25,500,21654
2026-03-06T22:28:49.144Z,52.59000015258789,14,985.7639770507812,-294,-21,4303,-77,1323,-532,,,,-0.04064931,0.0085449,0.9735692739486694,0.22448672354221344,25,500,21675
2026-03-06T22:28:49.104Z,52.599998474121094,13,985.7249755859375,166,-33,4060,362,315,-393,,,,-0.025878839,-0.008117655,0.9825414419174194,0.1838374137878418,25,500,21654
2026-03-06T22:28:49.064Z,52.61000061035156,13,985.7093505859375,119,-67,4021,133,282,-251,,,,-0.032043375,-0.00866697,0.9887059330940247,0.14575158059597015,25,500,21570
2026-03-06T22:28:49.024Z,52.63999938964844,13,985.7639770507812,22,-99,3858,-34,-542,-404,,,,-0.02990715,-0.006286605,0.9928563237190247,0.11517304182052612,25,500,21675
2026-03-06T22:28:48.984Z,52.72999954223633,13,985.7639770507812,1203,-591,4019,-231,876,-199,,,,-0.01232907,0.000915525,0.9963963627815247,0.083556913,25,500,21528
2026-03-06T22:28:48.944Z,52.84000015258789,13,985.8029785,736,673,4891,-411,253,-237,,,,-0.02636712,0.01879878,0.9981053471565247,0.051757678389549255,25,500,21341
2026-03-06T22:28:48.904Z,52.89999771118164,13,985.8341674804688,-2457,1683,2517,-330,-1614,-318,,,,0.15710408985614777,-0.065490551,-0.985349059,0.00317382,25,500,20936
2026-03-06T22:28:48.864Z,53.02000045776367,13,985.8575439453125,-1518,99,3611,-369,117,148,,,,0.14300499856472015,-0.053222518,-0.987973571,0.022888125851750374,25,500,20759
2026-03-06T22:28:48.824Z,53.13999938964844,13,985.8731689453125,-310,905,4742,-19,903,709,,,,0.11566132307052612,-0.050414909,-0.99151355,0.030578535050153732,25,500,20897
2026-03-06T22:28:48.784Z,53.13999938964844,13,985.8575439453125,-179,-359,3989,203,555,892,,,,0.10192845016717911,-0.02978508,-0.993466675,0.040527239,25,500,20721
2026-03-06T22:28:48.744Z,53.18000030517578,13,985.8029785,776,607,4006,40,683,1105,,,,0.097594962,-0.032958899,-0.993466675,0.048522826,25,500,20759
2026-03-06T22:28:48.704Z,53.16999816894531,13,985.8029785,-1571,-1138,4186,-322,-770,1274,,,,0.16149860620498657,0.033813390880823135,-0.980954528,0.10229466110467911,25,500,20917
2026-03-06T22:28:48.664Z,53.18000030517578,13,985.8186035,-2136,-282,3955,-393,496,1512,,,,0.15283164381980896,0.018371535,-0.982419372,0.10522434115409851,25,500,20721
2026-03-06T22:28:48.624Z,53.15999984741211,13,985.8029785,1532,2168,5662,-1441,375,1925,,,,0.093871832,-0.019409129,-0.989316285,0.10974092781543732,25,500,20818
2026-03-06T22:28:48.584Z,53.19999694824219,13,985.8341674804688,-2253,1942,3445,1621,-1377,1090,,,,0.21356146037578583,-0.095092528,-0.969174743,0.076843068,25,500,20917
2026-03-06T22:28:48.544Z,53.15999984741211,13,985.8575439453125,-1377,-269,4038,1014,1643,703,,,,0.16735796630382538,-0.0598143,-0.983395934,0.035217196,25,500,21016
2026-03-06T22:28:48.504Z,53.15999984741211,13,985.9667969,831,1656,3901,-264,1990,681,,,,-0.114257522,0.074706838,0.9904759526252747,0.01489254,25,500,21096
2026-03-06T22:28:48.464Z,53.119998931884766,13,985.9823608398438,-3120,-309,3191,190,-1129,239,,,,-0.178161159,0.018859815,0.9813817739486694,0.068542302,25,500,21036
2026-03-06T22:28:48.424Z,52.97999954223633,13,985.8731689453125,-1652,-598,3447,1405,1017,-662,,,,-0.145873651,-0.0158691,0.9873021841049194,0.060546718537807465,25,500,21137
2026-03-06T22:28:48.384Z,52.97999954223633,13,985.9667969,877,-1565,4370,645,799,-1652,,,,0.059509125,0.047912475,-0.996518433,0.032165445387363434,25,500,21157
2026-03-06T22:28:48.344Z,53.099998474121094,13,985.8341674804688,-288,-58,4151,122,290,-1629,,,,0.10211155563592911,0.018676709,-0.990292847,0.091857672,25,500,20936
2026-03-06T22:28:48.304Z,53.22999954223633,13,985.9667969,-423,-217,4425,-673,-290,-2014,,,,0.12371794134378433,-0.001281735,-0.983518004,0.13165248930454254,25,500,20586
2026-03-06T22:28:48.264Z,53.099998474121094,13,985.8731689453125,-2470,2174,3510,-694,-1364,-2170,,,,0.17163041234016418,-0.02832024,-0.968930602,0.17541459202766418,25,500,20547
2026-03-06T22:28:48.224Z,53.13999938964844,13,985.8575439453125,-1868,1934,3639,-13,-606,-1867,,,,0.1860957145690918,-0.030273359,-0.953671873,0.23431336879730225,25,500,20799
2026-03-06T22:28:48.184Z,53.25999832,13,985.8575439453125,-633,1422,4372,1231,-389,-2733,,,,0.15747030079364777,0.014343225,-0.873288751,0.4607532024383545,25,500,20682
2026-03-06T22:28:48.144Z,53.25999832,13,985.8575439453125,-854,410,4139,1068,158,-1675,,,,0.15319785475730896,0.070190251,-0.821592152,0.5444932579994202,25,500,20624
2026-03-06T22:28:48.104Z,53.22999954223633,13,985.8731689453125,-1670,-61,3604,1017,-1135,-609,,,,0.180968776,0.12603726983070374,-0.80499059,0.5506577491760254,25,500,20547
2026-03-06T22:28:48.064Z,53.19999694824219,13,985.8731689453125,-1929,-176,3772,281,115,678,,,,0.17413285374641418,0.13897669315338135,-0.809446156,0.5431504845619202,25,500,20528
2026-03-06T22:28:48.024Z,53.25999832,13,985.8341674804688,-1707,-559,3659,716,-82,-201,,,,0.15069541335105896,0.15527303516864777,-0.79742229,0.5631699562072754,25,500,20490
2026-03-06T22:28:47.984Z,53.22999954223633,13,985.8575439453125,-1808,180,3939,1487,665,-1018,,,,0.12689176201820374,0.13873255252838135,-0.728818953,0.6582624912261963,25,500,20490
2026-03-06T22:28:47.944Z,53.14999771118164,13,985.8341674804688,-790,338,3953,-262,667,-2187,,,,0.11248750239610672,0.10919161140918732,-0.687437177,0.7090436220169067,25,500,20624
2026-03-06T22:28:47.904Z,53.19999694824219,13,985.8186035,-352,-55,4238,430,1117,-2041,,,,0.063781574,0.092406988,-0.606382728,0.7871073484420776,25,500,20605
2026-03-06T22:28:47.864Z,53.279998779296875,13,985.8186035,-1125,603,3892,643,5,-1519,,,,0.069579899,0.099792227,-0.57433933,0.8094461560249329,25,500,20701
2026-03-06T22:28:47.824Z,53.279998779296875,13,985.8575439453125,-364,-83,4349,-241,-152,-1092,,,,0.058288425,0.087951437,-0.557066441,0.8236673474311829,25,500,20586
2026-03-06T22:28:47.784Z,53.27000045776367,13,985.8575439453125,-879,37,4005,-40,-25,-345,,,,0.062194664031267166,0.090148695,-0.553160191,0.8258035182952881,25,500,20547
2026-03-06T22:28:47.744Z,53.27000045776367,13,985.8731689453125,-885,-13,4045,-34,-23,-180,,,,0.062560871,0.089782484,-0.548033237,0.8292214870452881,25,500,20509
2026-03-06T22:28:47.704Z,53.25,13,985.8731689453125,-786,-108,4024,-25,35,-90,,,,0.062438804656267166,0.089904554,-0.547605991,0.8294656276702881,25,500,20509
2026-03-06T22:28:47.664Z,53.31999969482422,13,985.9667969,-878,6,3998,48,-53,-36,,,,0.06420882,0.092162848,-0.544432223,0.8311746120452881,25,500,20283
2026-03-06T22:28:47.624Z,53.31999969482422,13,986.0057983398438,-908,57,4025,-35,-95,-47,,,,0.066833325,0.093688726,-0.544676363,0.8306252956390381,25,500,20154
2026-03-06T22:28:47.584Z,53.34000015258789,13,986.0291748046875,-943,-43,4001,-14,-53,-35,,,,0.065734692,0.097167723,-0.538389742,0.8344094753265381,25,500,20414
2026-03-06T22:28:47.544Z,53.29999923706055,13,986.0369873046875,-914,-59,4056,46,-8,-79,,,,0.065063313,0.098266348,-0.537352145,0.8350198268890381,25,500,20377
2026-03-06T22:28:47.504Z,53.189998626708984,14,986.0291748046875,-921,-106,4034,107,-38,-121,,,,0.062927082,0.1000974029302597,-0.533079684,0.8377053737640381,25,500,20414
2026-03-06T22:28:47.464Z,53.189998626708984,14,986.0291748046875,-889,4,4031,67,18,-186,,,,0.061950523406267166,0.10040257126092911,-0.527037203,0.8415505886077881,25,500,20433
2026-03-06T22:28:47.424Z,53.15999984741211,14,985.9667969,-849,-124,4040,44,5,-214,,,,0.0598143,0.10259983688592911,-0.521116853,0.8451516628265381,25,500,20414
2026-03-06T22:28:47.384Z,53.04999923706055,14,985.9667969,-991,-150,3915,109,-132,-194,,,,0.066467114,0.11114473640918732,-0.5104357,0.8500344157218933,25,500,20547
2026-03-06T22:28:47.344Z,52.97999954223633,14,985.8731689453125,-881,190,4022,-106,-139,-236,,,,0.07263165,0.11193818598985672,-0.502562165,0.8541237711906433,25,500,20779
2026-03-06T22:28:47.304Z,53.00999832,14,985.8029785,-1089,129,4037,7,-127,-347,,,,0.074889943,0.11444062739610672,-0.495604187,0.8576638102531433,25,500,20701
2026-03-06T22:28:47.264Z,53,14,985.8186035,-1094,109,4061,98,-8,-300,,,,0.072570615,0.11517304182052612,-0.485472381,0.8635231852531433,25,500,20662
2026-03-06T22:28:47.224Z,53.14999771118164,14,985.8575439453125,-990,-12,3843,192,40,-276,,,,0.067992993,0.11590546369552612,-0.475584716,0.8692604899406433,25,500,20377
2026-03-06T22:28:47.184Z,53.04999923706055,14,985.8341674804688,-1009,243,4046,61,16,-261,,,,0.063476399,0.11480683833360672,-0.450987607,0.8828102350234985,25,500,20191
2026-03-06T22:28:47.144Z,53.04999923706055,14,985.8341674804688,-982,-104,3958,305,150,-397,,,,0.055969093,0.11328095942735672,-0.43279919,0.8925148248672485,25,500,20471
2026-03-06T22:28:47.104Z,52.959999084472656,14,985.8186035,-804,621,4201,-160,281,-682,,,,0.05664048,0.10662814229726791,-0.408934504,0.9044776558876038,25,500,20377
2026-03-06T22:28:47.064Z,53.03999710083008,14,985.8575439453125,-978,305,4014,279,-42,-184,,,,0.050231803208589554,0.11285371333360672,-0.396422327,0.9096656441688538,25,500,20154
2026-03-06T22:28:47.024Z,52.98999786376953,14,985.8186035,-852,256,4180,297,-87,-335,,,,0.042297255247831345,0.11840789765119553,-0.379271477,0.9166236519813538,25,500,20172
2026-03-06T22:28:46.984Z,52.94999694824219,14,985.8186035,-939,-212,3921,317,-36,-209,,,,0.017028765752911568,0.13439907133579254,-0.350462973,0.926694393,25,500,20321
2026-03-06T22:28:46.944Z,52.84000015258789,14,985.8575439453125,-1575,-841,3817,436,-75,-143,,,,-0.009582495,0.15533407032489777,-0.335143179,0.929196835,25,500,20509
2026-03-06T22:28:46.904Z,52.75999832,14,985.8575439453125,-1885,-1560,3468,956,-352,-6,,,,-0.030151291,0.16265827417373657,-0.332213491,0.928525448,25,500,20605
2026-03-06T22:28:46.864Z,52.72999954223633,14,985.8341674804688,-1116,-1578,3551,596,352,346,,,,-0.049804561,0.15655477344989777,-0.339598745,0.926084042,25,500,20586
2026-03-06T22:28:46.824Z,52.72999954223633,14,985.8341674804688,-1131,-771,3769,-64,74,313,,,,-0.04382313,0.14825402200222015,-0.340087026,0.927548885,25,500,20740
2026-03-06T22:28:46.784Z,52.709999084472656,14,985.8186035,-627,-733,3978,-226,315,122,,,,-0.034484774,0.12243621051311493,-0.33764562,0.932553768,25,500,20740
2026-03-06T22:28:46.744Z,52.599998474121094,14,985.8186035,-851,-536,4056,-340,79,22,,,,-0.023742614,0.11944549530744553,-0.336302847,0.933774471,25,500,20936
2026-03-06T22:28:46.704Z,52.47999954223633,14,985.8341674804688,-150,-431,4030,-330,0,125,,,,-0.00915525,0.10613986104726791,-0.330382466,0.937741756,25,500,20976
2026-03-06T22:28:46.664Z,52.40999984741211,14,985.8341674804688,-341,-142,3965,40,18,-5,,,,0.002380365,0.11358613520860672,-0.302794635,0.9462255835533142,25,500,21096
2026-03-06T22:28:46.624Z,52.29999923706055,14,985.8341674804688,-955,-247,4459,-246,-214,-200,,,,0.010314915,0.12487760931253433,-0.291442126,0.9483007788658142,25,500,21157
2026-03-06T22:28:46.584Z,52.16999816894531,14,985.8341674804688,-1534,-734,4331,12,-669,-25,,,,0.014404259622097015,0.14532433450222015,-0.278807878,0.9491552710533142,25,500,21403
2026-03-06T22:28:46.544Z,52.21999740600586,14,985.8575439453125,-1565,534,3643,-47,-805,-14,,,,0.038635153,0.14623986184597015,-0.270079881,0.9508642554283142,25,500,21238
2026-03-06T22:28:46.504Z,52.369998931884766,14,985.8186035,-389,750,3929,-724,230,-357,,,,0.0463866,0.14977988600730896,-0.249450043,0.9555639624595642,25,500,21056
2026-03-06T22:28:46.464Z,52.38999938964844,14,985.8731689453125,-2824,-2188,3466,-111,-421,647,,,,-0.021545354,0.1986689269542694,-0.305907428,0.930783749,25,500,21016
2026-03-06T22:28:46.424Z,52.38999938964844,14,985.8731689453125,-1473,-1350,3570,622,186,536,,,,-0.031188885,0.178588405,-0.347594321,0.919919491,25,500,20996
2026-03-06T22:28:46.384Z,52.31999969482422,14,985.8731689453125,-1701,-1155,3560,-132,108,434,,,,-0.02331537,0.180236354,-0.365111381,0.9130225777626038,25,500,21056
2026-03-06T22:28:46.344Z,52.18000030517578,14,985.8341674804688,-1494,-976,3517,-177,-230,222,,,,0.008117655,0.16497761011123657,-0.387999505,0.9066749215126038,25,500,21137
2026-03-06T22:28:46.304Z,52.22999954223633,14,985.8731689453125,-1189,0,3968,-900,605,-618,,,,0.032043375074863434,0.14520226418972015,-0.396971643,0.9056373238563538,25,500,20838
2026-03-06T22:28:46.264Z,52.12999725341797,14,985.9667969,-882,-59,3907,223,87,-629,,,,0.032592691481113434,0.14495812356472015,-0.398436487,0.9050269722938538,25,500,20624
2026-03-06T22:28:46.224Z,52.07999801635742,14,985.8731689453125,-719,218,3866,218,-338,-648,,,,0.040161029,0.14471398293972015,-0.406371027,0.9012427926063538,25,500,20799
2026-03-06T22:28:46.184Z,52.07999801635742,14,985.9667969,-4,166,4564,491,128,-533,,,,0.02905266,0.14239466190338135,-0.417967677,0.8967261910438538,25,500,21157
2026-03-06T22:28:46.144Z,52.09000015258789,14,985.9823608398438,-1097,-242,5057,819,-140,-854,,,,0.032287515699863434,0.15582235157489777,-0.427061886,0.8900734186172485,25,500,21016
2026-03-06T22:28:46.104Z,52.03999710083008,14,985.9667969,1839,-244,5053,-674,356,-907,,,,0.033203039318323135,0.14977988600730896,-0.440977871,0.8842750787734985,25,500,21197
2026-03-06T22:28:46.064Z,51.94999694824219,14,985.9667969,-3251,1109,2613,-478,-3219,-1082,,,,0.070861638,0.2713616192340851,-0.441710293,0.8521096110343933,25,500,21320
2026-03-06T22:28:46.024Z,51.86000061035156,14,985.9667969,-2658,-1509,-1044,3273,-389,-325,,,,0.048889033,0.3071891665458679,-0.438231289,0.8432595729827881,25,500,21320
2026-03-06T22:28:45.984Z,51.869998931884766,14,986.0057983398438,-14,-1777,2359,2331,1259,-462,,,,-0.00305175,0.2692253887653351,-0.424437374,0.8644387125968933,25,500,21177
2026-03-06T22:28:45.944Z,51.89999771118164,14,985.9823608398438,-5206,-386,498,551,-4399,-893,,,,0.071044743,0.366271049,-0.408018976,0.8331887722015381,25,500,21279
2026-03-06T22:28:45.904Z,51.82999801635742,14,985.9667969,-2270,97,3347,-1354,-177,-788,,,,0.11218232661485672,0.24169859290122986,-0.454954892,0.8496682047843933,25,500,21096
2026-03-06T22:28:45.864Z,51.869998931884766,14,985.9823608398438,-1854,411,3809,-533,1683,196,,,,0.10717745870351791,0.21533147990703583,-0.46746707,0.8505837321281433,25,500,21238
2026-03-06T22:28:45.824Z,51.869998931884766,14,985.9823608398438,-1866,308,3812,-193,437,432,,,,0.10180637985467911,0.1989741027355194,-0.499815613,0.8367288112640381,25,500,20996
2026-03-06T22:28:45.784Z,51.84000015258789,14,985.9823608398438,-1508,-122,3880,263,293,420,,,,0.089721449,0.21502630412578583,-0.536436617,0.8110941052436829,25,500,21361
2026-03-06T22:28:45.744Z,51.71999740600586,14,986.0291748046875,899,1468,3023,124,-728,383,,,,0.098937735,0.23223817348480225,-0.558470249,0.7900980710983276,25,500,21382
2026-03-06T22:28:45.704Z,51.62999725341797,14,985.9823608398438,-6319,-4877,931,701,-2139,759,,,,0.099303946,0.4484851658344269,-0.551817417,0.6959820985794067,25,500,21570
2026-03-06T22:28:45.664Z,51.599998474121094,15,986.0057983398438,-3166,-2176,3177,909,1688,1563,,,,0.067748852,0.3829946219921112,-0.593443274,0.7045270204544067,25,500,21718
2026-03-06T22:28:45.624Z,51.5,15,986.0057983398438,-1765,-1298,3459,-1580,1808,417,,,,0.06970197,0.2751457691192627,-0.647886515,0.7067853212356567,25,500,21739
2026-03-06T22:28:45.584Z,51.37999725341797,14,985.9667969,-1807,-1165,3660,-1372,688,251,,,,0.087341085,0.23528993129730225,-0.660459757,0.7075787782669067,25,500,21782
2026-03-06T22:28:45.544Z,51.40999984741211,15,986.0057983398438,-990,-47,3647,-1439,451,270,,,,0.10620089620351791,0.1963495910167694,-0.672544658,0.7055035829544067,25,500,21761
2026-03-06T22:28:45.504Z,51.40999984741211,15,985.9667969,-1870,-521,3399,-1149,227,465,,,,0.12731900811195374,0.1842036247253418,-0.683225811,0.6949445009231567,25,500,21570
2026-03-06T22:28:45.464Z,51.40999984741211,15,985.9667969,-1845,290,3807,-885,-78,337,,,,0.15277060866355896,0.094726317,-0.743406296,0.6441633701324463,25,500,21465
2026-03-06T22:28:45.424Z,51.47999954223633,15,985.9667969,-583,1412,4401,170,495,47,,,,0.12957730889320374,0.070312321,-0.722044051,0.6758405566215515,25,500,21341
2026-03-06T22:28:45.384Z,51.47999954223633,15,985.8731689453125,-884,754,3855,-40,323,-1146,,,,0.12506070733070374,0.073852353,-0.703184247,0.6959820985794067,25,500,21444
2026-03-06T22:28:45.344Z,51.37999725341797,15,985.8575439453125,-997,386,3919,355,41,-577,,,,0.10290501266717911,0.10198948532342911,-0.66924876,0.728696883,25,500,21591
2026-03-06T22:28:45.304Z,51.37999725341797,15,985.8731689453125,-1593,-95,4662,461,25,-267,,,,0.072265439,0.13928186893463135,-0.639341652,0.7526226043701172,25,500,21465
2026-03-06T22:28:45.264Z,51.34000015258789,15,985.8575439453125,-1683,-1573,3184,1598,-572,-645,,,,0.04089345,0.16473346948623657,-0.611570716,0.7727031111717224,25,500,21382
2026-03-06T22:28:45.224Z,51.11000061035156,15,985.8731689453125,-1130,-598,3713,179,416,-541,,,,0.032775793224573135,0.15386924147605896,-0.58593601,0.7948588132858276,25,500,21718
2026-03-06T22:28:45.184Z,50.959999084472656,15,985.8731689453125,-393,171,4068,-255,284,-511,,,,0.048278686,0.13415493071079254,-0.533262789,0.8337991237640381,25,500,21804
2026-03-06T22:28:45.144Z,50.959999084472656,15,985.8575439453125,-744,-2403,3873,-410,-792,-716,,,,0.052673205733299255,0.178161159,-0.475950927,0.8595559000968933,25,500,21868
2026-03-06T22:28:45.104Z,50.88999938964844,15,985.8731689453125,-1979,1042,3959,-1145,-1717,-831,,,,0.12365690618753433,0.16009479761123657,-0.443541348,0.8730446100234985,25,500,21955
2026-03-06T22:28:45.064Z,50.81999969482422,15,985.8731689453125,-566,1246,3822,-484,913,56,,,,0.10473605990409851,0.11608856916427612,-0.415709376,0.8959327340126038,25,500,21977
2026-03-06T22:28:45.024Z,50.71999740600586,15,985.9667969,-623,452,3881,560,-46,-22,,,,0.088378683,0.13146938383579254,-0.397398889,0.9038062691688538,25,500,21933
2026-03-06T22:28:44.984Z,50.689998626708984,15,985.9823608398438,-562,665,3999,324,-500,195,,,,0.083678983,0.14990195631980896,-0.376646996,0.9102759957313538,25,500,21912
2026-03-06T22:28:44.944Z,50.68000030517578,15,986.0291748046875,-1606,1549,5055,-426,-780,197,,,,0.085082792,0.1895136684179306,-0.364256889,0.9077735543251038,25,500,21912
2026-03-06T22:28:44.904Z,50.54999923706055,15,986.0057983398438,-1773,-884,3099,2031,-1286,-15,,,,-0.008850075,0.20544381439685822,-0.304076374,0.930112362,25,500,22175
2026-03-06T22:28:44.864Z,50.47999954223633,15,985.9823608398438,-1262,-561,3605,-51,846,-396,,,,-0.01147458,0.1880488395690918,-0.285582751,0.939572811,25,500,22198
2026-03-06T22:28:44.824Z,50.5,15,985.9823608398438,-1290,-778,3170,11,571,-842,,,,0.004821765,0.21545355021953583,-0.134215966,0.9671605825424194,25,500,22043
2026-03-06T22:28:44.784Z,50.46999740600586,15,985.8731689453125,-2436,668,3955,173,-540,-877,,,,0.044738654,0.22387637197971344,-0.075073048,0.9706395864486694,25,500,21890
2026-03-06T22:28:44.744Z,50.46999740600586,15,985.9667969,-2052,1256,3341,-699,-22,-190,,,,0.062988117,0.21618597209453583,-0.052184924,0.9728978872299194,25,500,22021
2026-03-06T22:28:44.704Z,50.43000030517578,15,985.9667969,-1509,1220,3676,-389,331,-464,,,,0.044067271053791046,0.20336861908435822,0.049255244,0.9768041372299194,25,500,22021
2026-03-06T22:28:44.664Z,50.369998931884766,15,985.8341674804688,-915,288,3624,620,-4,-1016,,,,-0.02819817,0.1967768371105194,0.17687943577766418,0.9639257788658142,25,500,21999
2026-03-06T22:28:44.624Z,50.34000015258789,15,985.8341674804688,-1404,1429,4326,1233,-351,-987,,,,-0.074401662,0.20214791595935822,0.30956950783729553,0.926084042,25,500,21999
2026-03-06T22:28:44.584Z,50.28999710083008,15,985.8575439453125,-3033,-483,3535,420,-445,-633,,,,-0.133361474,0.20123238861560822,0.3720083236694336,0.8962379097938538,25,500,22065
2026-03-06T22:28:44.544Z,50.21999740600586,15,985.9667969,-1232,-543,3818,1979,-301,-760,,,,-0.187438488,0.091613531,0.6251814961433411,0.7520122528076172,25,500,22043
2026-03-06T22:28:44.504Z,50.14999771118164,16,985.9667969,-1043,-110,3813,608,374,-1922,,,,-0.212035596,0.058837742,0.8077371716499329,0.5468125343322754,25,500,22131
2026-03-06T22:28:44.464Z,50.02000045776367,16,985.8575439453125,-1143,976,3806,673,-727,-2328,,,,-0.230529189,0.04492176,0.8804908990859985,0.41168108582496643,25,500,22220
2026-03-06T22:28:44.424Z,49.87999725341797,16,985.8731689453125,-1604,-2437,4415,1693,-104,-2044,,,,-0.255858719,0.013977015390992165,0.927670956,0.2713616192340851,25,500,22265
2026-03-06T22:28:44.384Z,49.80999755859375,16,985.8731689453125,-3069,1862,2912,-657,-867,-2519,,,,-0.267638475,0.058044285,0.9500097632408142,0.14977988600730896,25,500,22400
2026-03-06T22:28:44.344Z,49.73999786376953,16,985.8731689453125,-2195,3061,3328,129,330,-2205,,,,0.26086360216140747,0.10363742709159851,-0.880124688,0.3826894462108612,25,500,22377
2026-03-06T22:28:44.304Z,49.71999740600586,16,985.9667969,-3090,-576,3436,1943,-506,-1116,,,,0.25109797716140747,0.18054153,-0.82842803,0.4668567180633545,25,500,22332
2026-03-06T22:28:44.264Z,49.71999740600586,16,985.8341674804688,-3562,-197,2781,1591,-897,-1045,,,,0.24511656165122986,0.23211610317230225,-0.778806627,0.5285630822181702,25,500,22400
2026-03-06T22:28:44.224Z,49.66999816894531,16,985.8575439453125,-2884,-282,2865,1655,233,-1351,,,,0.21740667521953583,0.25579768419265747,-0.726804793,0.5991195440292358,25,500,22423
2026-03-06T22:28:44.184Z,49.54999923706055,16,985.8731689453125,-2748,-205,3201,1262,472,-1860,,,,0.1961054503917694,0.2622673809528351,-0.684019268,0.6517317295074463,25,500,22491
2026-03-06T22:28:44.144Z,49.48999786376953,16,985.8575439453125,-2511,-623,3224,1590,516,-1879,,,,0.13006559014320374,0.2908317744731903,-0.581297338,0.7486553192138672,25,500,22287
2026-03-06T22:28:44.104Z,49.39999771118164,16,985.8731689453125,-2243,-1196,3054,1521,475,-1305,,,,0.10137913376092911,0.3024284243583679,-0.542357028,0.7771586775779724,25,500,22423
2026-03-06T22:28:44.064Z,49.28999710083008,16,985.9667969,-2800,-179,3509,826,-9,-1171,,,,0.097961172,0.3056632876396179,-0.508970857,0.7986429929733276,25,500,22265
2026-03-06T22:28:44.024Z,49.16999816894531,16,985.9823608398438,-2384,-1397,3543,387,481,-1252,,,,0.080871373,0.31292644143104553,-0.474058837,0.8189676403999329,25,500,22793
2026-03-06T22:28:43.984Z,49.029998779296875,16,985.9823608398438,-2376,-700,3269,437,235,-393,,,,0.062072593718767166,0.31286540627479553,-0.437010586,0.8409402370452881,25,500,23006
2026-03-06T22:28:43.944Z,48.849998474121094,16,985.9823608398438,-2251,-709,3482,3,71,8,,,,0.04077138,0.31207194924354553,-0.369811058,0.8741432428359985,25,500,24659
2026-03-06T22:28:43.904Z,48.599998474121094,17,985.9667969,-2169,-622,3381,5,9,-403,,,,0.032226480543613434,0.31066814064979553,-0.328307271,0.8914161920547485,25,500,24866
2026-03-06T22:28:43.864Z,48.529998779296875,17,985.9667969,-2293,-278,3405,186,325,-530,,,,0.00964353,0.2886955440044403,-0.225402251,0.930417538,25,500,24908
2026-03-06T22:28:43.824Z,48.43000030517578,17,985.9823608398438,-1215,-414,3883,77,1457,-1046,,,,-0.001281735,0.23303163051605225,-0.156798914,0.9597143530845642,25,500,25021
2026-03-06T22:28:43.784Z,48.45000076293945,17,985.9667969,-1019,-666,3942,-307,1661,-1063,,,,0.0024414,0.1856684684753418,-0.040954486,0.9816869497299194,25,500,24522
2026-03-06T22:28:43.744Z,48.31999969482422,17,986.0057983398438,-2220,113,3425,-398,83,-377,,,,0.010864229872822762,0.1928706020116806,0.058898773,0.9793676137924194,25,500,24590
2026-03-06T22:28:43.704Z,48.21999740600586,17,985.9823608398438,-969,1451,3610,-999,266,-167,,,,0.035156161,0.177978054,0.076415822,0.9804052114486694,25,500,24563
2026-03-06T22:28:43.664Z,48.13999938964844,17,985.9667969,-1836,1135,3907,-322,235,-439,,,,0.038940329,0.16784624755382538,0.10852023214101791,0.9790014028549194,25,500,24700
2026-03-06T22:28:43.624Z,48.13999938964844,17,985.9667969,-170,357,3979,264,669,271,,,,0.024169860407710075,0.14056360721588135,0.11560028791427612,0.9829686880111694,25,500,24936
2026-03-06T22:28:43.584Z,48.04999923706055,17,985.8575439453125,271,-100,4108,499,654,498,,,,0.00671385,0.13067594170570374,0.13043180108070374,0.9827245473861694,25,500,24686
2026-03-06T22:28:43.544Z,47.97999954223633,17,985.8341674804688,-2319,-78,4483,173,300,418,,,,-0.020751899,0.1918330043554306,0.17559769749641418,0.9653295278549194,25,500,24825
2026-03-06T22:28:43.504Z,47.91999816894531,17,985.8731689453125,-424,-926,4382,1275,-2026,138,,,,-0.059387054,0.11505097150802612,0.25756770372390747,0.9575170874595642,25,500,24838
2026-03-06T22:28:43.464Z,47.86000061035156,17,985.8731689453125,-40,-382,3790,-226,464,122,,,,-0.048522826,0.11999481171369553,0.31939616799354553,0.938718319,25,500,24769
2026-03-06T22:28:43.424Z,47.689998626708984,17,985.8575439453125,-1176,-2169,3923,174,-420,-268,,,,-0.068603337,0.13854944705963135,0.358458549,0.920590878,25,500,24783
2026-03-06T22:28:43.384Z,47.54999923706055,18,985.8731689453125,-1564,1041,3771,-63,-1037,-273,,,,-0.02966301,0.1840205192565918,0.42175185680389404,0.8873268365859985,25,500,24838
2026-03-06T22:28:43.344Z,47.43000030517578,18,985.8731689453125,-1375,850,3720,-409,1018,291,,,,-0.028015064,0.16528278589248657,0.4637439250946045,0.8698708415031433,25,500,24936
2026-03-06T22:28:43.304Z,47.36000061035156,18,985.8731689453125,-652,853,3750,362,587,-120,,,,-0.037902735,0.13897669315338135,0.5172106027603149,0.8435647487640381,25,500,24993
2026-03-06T22:28:43.264Z,47.36000061035156,18,985.8731689453125,230,-968,4109,1001,588,-165,,,,-0.057372902,0.10229466110467911,0.5817856192588806,0.8048074841499329,25,500,25163
2026-03-06T22:28:43.224Z,47.209999084472656,18,985.8575439453125,-3029,-906,2230,-355,253,-414,,,,-0.132384911,0.15283164381980896,0.6915265321731567,0.6933575868606567,25,500,25307
2026-03-06T22:28:43.184Z,47.12999725341797,18,985.8341674804688,-2437,-753,3617,1175,138,-308,,,,-0.152526468,0.11248750239610672,0.7360210418701172,0.6498396396636963,25,500,25438
2026-03-06T22:28:43.144Z,46.98999786376953,18,985.8731689453125,-894,-561,3403,668,1008,-494,,,,-0.139098763,0.069885075,0.7822245359420776,0.6031478643417358,25,500,25674
2026-03-06T22:28:43.104Z,46.93000030517578,18,985.8731689453125,-1827,-1026,3807,255,430,-863,,,,-0.13952601,0.062377769500017166,0.8218362927436829,0.5487046241760254,25,500,25570
2026-03-06T22:28:43.064Z,46.89999771118164,18,985.9667969,-22,820,4083,-713,516,-573,,,,-0.095458739,0.054626323,0.8475320339202881,0.5191026926040649,25,500,25351
2026-03-06T22:28:43.024Z,46.70000076293945,18,985.9823608398438,-2572,1502,3613,770,1457,95,,,,-0.039489646,0.067809887,0.8674904704093933,0.4911486506462097,25,500,25351
2026-03-06T22:28:42.984Z,46.70000076293945,18,986.0057983398438,631,2461,3083,-1821,2305,660,,,,0.11108370125293732,0.057922214,0.8648049235343933,0.4861437678337097,25,500,25526
2026-03-06T22:28:42.944Z,46.599998474121094,18,985.9667969,4816,1177,7851,1158,2184,1465,,,,0.17388871312141418,0.027160576,0.8645607829093933,0.4706408977508545,25,500,25585
2026-03-06T22:28:42.904Z,46.48999786376953,18,985.9823608398438,-2896,54,1395,-1239,-6349,1555,,,,-0.103454322,0.11328095942735672,0.8928200006484985,0.42333877086639404,25,500,25615
2026-03-06T22:28:42.864Z,46.43000030517578,19,986.0057983398438,-561,119,4491,649,629,329,,,,-0.01525875,0.030517499893903732,0.939328671,0.34112462401390076,25,500,25734
2026-03-06T22:28:42.824Z,46.279998779296875,19,985.9823608398438,108,138,4041,268,891,-643,,,,0.00085449,0.019714305,0.9460424780845642,0.32324135303497314,25,500,25809
2026-03-06T22:28:42.784Z,46.07999801635742,19,985.8731689453125,1163,-482,4495,327,461,-594,,,,0.017761186,-0.01086423,0.9674047231674194,0.25219660997390747,25,500,26037
2026-03-06T22:28:42.744Z,45.71999740600586,19,985.8341674804688,1203,-205,3745,-118,364,305,,,,0.022521914914250374,-0.000915525,0.9753392934799194,0.21948185563087463,25,500,26473
2026-03-06T22:28:42.704Z,45.71999740600586,19,985.8186035,738,-398,3563,-6,242,27,,,,0.002624505,0.00769041,0.9817479848861694,0.1897578090429306,25,500,26664
2026-03-06T22:28:42.664Z,45.47999954223633,19,985.8575439453125,-457,-162,3665,-325,-1154,-455,,,,-0.016906695,0.026306085288524628,0.9863866567611694,0.16137653589248657,25,500,26858
2026-03-06T22:28:42.624Z,45.30999755859375,19,985.8186035,-464,756,4730,-868,919,-32,,,,-0.052306995,0.071166813,0.9913304448127747,0.096862547,25,500,27105
2026-03-06T22:28:42.584Z,45.30999755859375,19,985.8186035,-1755,1172,2921,-1008,-2232,-171,,,,-0.10168431,0.096862547,0.9879125356674194,0.064880207,25,500,27072
2026-03-06T22:28:42.544Z,45.20000076293945,19,985.7639770507812,-2190,1077,3513,-655,-561,152,,,,-0.111877158,0.10345432162284851,0.9880346059799194,0.021240180358290672,25,500,26874
2026-03-06T22:28:42.504Z,45.09000015258789,20,985.8029785,1809,308,4294,-230,134,-428,,,,0.00891111,-0.078796186,-0.996152222,0.036315825,25,500,26809
2026-03-06T22:28:42.464Z,45,20,985.7639770507812,2778,602,3658,334,1527,682,,,,-0.009826635,-0.073303036,-0.995480835,0.058654636,25,500,26761
2026-03-06T22:28:42.424Z,44.88999938964844,20,985.7483520507812,-554,1379,4529,-65,-1242,715,,,,0.095580809,-0.052612171,-0.98962146,0.09301734,25,500,26284
2026-03-06T22:28:42.384Z,44.77000045776367,20,985.7873535,-3307,-2151,2121,1809,-3096,758,,,,0.14776574075222015,0.022155705839395523,-0.981442809,0.11968963593244553,25,500,26457
2026-03-06T22:28:42.344Z,44.62999725341797,20,985.7873535,-1198,-157,4473,1047,538,1041,,,,0.09594702,0.015319785103201866,-0.986874938,0.12890592217445374,25,500,26378
2026-03-06T22:28:42.304Z,44.53999710083008,20,985.7873535,2773,-340,2986,-795,1565,1185,,,,0.023071229457855225,-0.00903318,-0.990842164,0.13256801664829254,25,500,26300
2026-03-06T22:28:42.264Z,44.53999710083008,20,985.7873535,1430,-3599,3528,-247,1626,1582,,,,0.066528149,0.018127395,-0.986020446,0.15148887038230896,25,500,26347
2026-03-06T22:28:42.224Z,44.39999771118164,21,985.8029785,-2799,1673,3889,-1535,-3459,164,,,,0.17565873265266418,-0.058410496,-0.972836852,0.13885462284088135,25,500,26552
2026-03-06T22:28:42.184Z,44.209999084472656,21,985.8186035,436,116,3622,-330,1844,1274,,,,0.081176549,-0.040466204,-0.994687378,0.047912475,25,500,26858
2026-03-06T22:28:42.144Z,44,21,985.8186035,1710,-1108,4364,581,1280,1258,,,,0.050292838364839554,-0.028991625,-0.998288453,0.00183105,25,500,27055
2026-03-06T22:28:42.104Z,43.77000045776367,21,985.8186035,-3700,-712,2788,-1216,-1177,589,,,,-0.16296345,0.002990715,0.9852880239486694,0.050720084458589554,25,500,27121
2026-03-06T22:28:42.064Z,43.56999969482422,21,985.8186035,-800,-814,3614,1198,1314,412,,,,-0.052184924,-0.049804561,0.9963353276252747,0.044860724,25,500,27390
2026-03-06T22:28:42.024Z,43.48999786376953,21,985.7873535,586,-450,3882,-329,1228,-968,,,,-0.01367184,0.00219726,0.9993260502815247,0.032165445387363434,25,500,27205
2026-03-06T22:28:41.984Z,43.34000015258789,22,985.8029785,-385,293,4188,-811,-1118,-892,,,,-0.031005779,0.023742614313960075,0.9988988041877747,0.024413999170064926,25,500,27289
2026-03-06T22:28:41.944Z,43.18000030517578,22,985.8341674804688,7,502,4617,-857,-1,-1038,,,,-0.035400301,0.051391471177339554,0.9979222416877747,0.011230439879000187,25,500,27138
2026-03-06T22:28:41.904Z,43.02000045776367,22,985.8575439453125,-931,1326,3895,-703,-743,-559,,,,-0.061218105,0.078552045,0.9948704838752747,0.013488735,25,500,26858
2026-03-06T22:28:41.864Z,42.849998474121094,22,985.9667969,-819,860,3763,-253,-456,-374,,,,0.063049152,-0.074828908,-0.995114625,0.010436984710395336,25,500,27339
2026-03-06T22:28:41.824Z,42.63999938964844,23,986.0057983398438,-751,1597,4056,122,216,-728,,,,0.052856311202049255,-0.073730282,-0.995480835,0.026245050132274628,25,500,27356
2026-03-06T22:28:41.784Z,42.47999954223633,23,986.0057983398438,554,-89,4363,557,357,-419,,,,0.024841245263814926,-0.028015064,-0.99920398,0.007507305,25,500,27088
2026-03-06T22:28:41.744Z,42.18000030517578,23,985.8575439453125,371,816,4064,492,-289,-109,,,,0.038574118,-0.022643985,-0.998959839,0.00341796,25,500,26696
2026-03-06T22:28:41.704Z,41.97999954223633,24,985.7639770507812,328,397,3866,182,-808,-127,,,,-0.085815206,0.019592235,0.9960301518440247,0.009460425,25,500,26989
2026-03-06T22:28:41.664Z,41.73999786376953,24,985.7639770507812,-1506,-243,3755,-119,-372,-24,,,,0.12384001165628433,0.042236220091581345,-0.989438355,0.061340175569057465,25,500,27155
2026-03-06T22:28:41.624Z,41.5,24,985.7483520507812,-732,-540,4036,595,961,-1248,,,,0.091613531,0.050903189927339554,-0.990659058,0.086852804,25,500,27121
2026-03-06T22:28:41.584Z,41.5,24,985.7249755859375,-186,-944,4074,236,1244,-517,,,,0.065734692,0.053161483,-0.991757691,0.09619116,25,500,27121
2026-03-06T22:28:41.544Z,41.29999923706055,24,985.6859741210938,-517,-644,4239,178,212,-820,,,,0.058959808,0.054626323,-0.989865601,0.11645478010177612,25,500,27088
2026-03-06T22:28:41.504Z,41.29999923706055,24,985.6859741210938,516,-762,3882,31,421,-1005,,,,0.046996951,0.052429065108299255,-0.987119079,0.14318810403347015,25,500,26874
2026-03-06T22:28:41.464Z,41.29999923706055,24,985.6859741210938,186,-116,3969,199,15,-1075,,,,0.072387509,0.036865141,-0.975949645,0.20220895111560822,25,575,17408
2026-03-06T22:28:41.424Z,41.29999923706055,24,985.7093505859375,-1177,-383,4903,-391,-100,-712,,,,0.091918707,0.031188884750008583,-0.968747497,0.22796572744846344,68,575,17367
2026-03-06T22:28:41.384Z,41.29999923706055,25,985.7249755859375,-384,-762,5028,-304,-177,-1063,,,,0.083068632,0.0292968,-0.961789548,0.25915461778640747,68,575,17272
2026-03-06T22:28:41.344Z,41.07999801635742,11,986.1383666992188,-1364,2607,4168,-164,-572,-1823,,,,0.12457243353128433,0.013610805,-0.939939022,0.31738200783729553,63,566,17354
2026-03-06T22:28:41.304Z,59.22999954223633,11,986.0993652,-1759,-156,3103,483,-782,-1577,,,,0.13122524321079254,0.038391016,-0.917234004,0.3740224838256836,63,566,17463
2026-03-06T22:28:41.264Z,59.23999786376953,11,986.1539916992188,-734,-494,3971,168,848,-1528,,,,0.071960263,0.052612170577049255,-0.879697442,0.4670398235321045,63,566,17367
2026-03-06T22:28:41.224Z,59.16999816894531,11,986.1929931640625,-779,-223,4045,1007,441,-1638,,,,0.044189341366291046,0.062316734343767166,-0.854489982,0.5137315988540649,58,558,17519
2026-03-06T22:28:41.184Z,59.03999710083008,11,986.2319946289062,52,-897,4490,548,1224,-1074,,,,0.004089345,0.062072593718767166,-0.838437796,0.5413194298744202,58,558,17381
2026-03-06T22:28:41.144Z,59.02000045776367,11,986.2163696289062,-220,-306,3976,198,566,-478,,,,-0.00646971,0.059509125,-0.835447073,0.5462022423744202,58,558,17408
2026-03-06T22:28:41.104Z,58.96999740600586,11,986.2319946289062,-284,-275,4531,-53,-259,109,,,,0.00195312,0.069885075,-0.837644339,0.5416856408119202,58,550,17408
2026-03-06T22:28:41.064Z,59.02000045776367,11,986.1929931640625,-1268,-894,3884,797,-355,-500,,,,0.054382186,0.14715538918972015,-0.710630476,0.6857892870903015,53,550,17645
2026-03-06T22:28:41.024Z,58.89999771118164,11,986.1929931640625,-1086,222,3923,299,492,-1512,,,,0.04809558,0.13500942289829254,-0.677610576,0.721250594,53,550,17533
2026-03-06T22:28:40.984Z,58.939998626708984,11,986.1929931640625,-1172,-207,3714,42,401,-1276,,,,0.042480360716581345,0.12591519951820374,-0.65399003,0.7446880340576172,49,542,17744
2026-03-06T22:28:40.944Z,58.87999725341797,11,986.1539916992188,-244,65,4279,-67,806,-658,,,,0.032043375074863434,0.10601779818534851,-0.642576456,0.7581157088279724,49,542,17887
2026-03-06T22:28:40.904Z,58.78999710083008,11,986.1539916992188,-708,-334,4080,365,10,-193,,,,0.026916435,0.11151094734668732,-0.631101906,0.7670878767967224,49,542,17873
2026-03-06T22:28:40.864Z,58.71999740600586,11,986.1383666992188,-990,-466,3941,129,-97,-260,,,,0.018249465,0.12292449176311493,-0.608091712,0.7839945554733276,48,540,17916
2026-03-06T22:28:40.824Z,58.65999984741211,11,986.1539916992188,-983,-438,3926,97,100,-153,,,,0.014587365090847015,0.12139861285686493,-0.604246497,0.7872904539108276,48,540,17858
2026-03-06T22:28:40.784Z,58.59000015258789,11,986.1383666992188,-136,-1071,4163,122,321,-131,,,,-0.011779755,0.10424777865409851,-0.601744056,0.7916849851608276,48,541,17916
2026-03-06T22:28:40.744Z,58.459999084472656,11,986.1539916992188,-391,-595,4532,294,-36,221,,,,-0.01196286,0.11077852547168732,-0.600950599,0.7914408445358276,48,541,17687
2026-03-06T22:28:40.704Z,58.38999938964844,11,986.1539916992188,-803,-546,4133,4,-399,-120,,,,-0.007141095,0.12335173785686493,-0.598326087,0.7915629148483276,48,541,17787
2026-03-06T22:28:40.664Z,58.3599968,11,986.1773681640625,-691,-842,3851,393,-299,-143,,,,-0.03063957,0.13507045805454254,-0.576414526,0.8052957653999329,47,538,17873
2026-03-06T22:28:40.624Z,58.46999740600586,11,986.1539916992188,-450,-1048,3858,254,157,-273,,,,-0.045898318,0.13403286039829254,-0.553770542,0.8204324841499329,47,538,17758
2026-03-06T22:28:40.584Z,58.40999984741211,11,986.1149902,-255,-410,4119,-163,17,-264,,,,-0.04064931,0.12634244561195374,-0.543150485,0.8290383815765381,47,538,17873
2026-03-06T22:28:40.544Z,58.38999938964844,11,986.1539916992188,-299,-1268,4219,-220,22,-122,,,,-0.039489646,0.12475553900003433,-0.528563082,0.8386819362640381,43,531,17701
2026-03-06T22:28:40.504Z,58.39999771118164,11,986.1383666992188,2153,-491,4692,-456,510,-282,,,,-0.044006236,0.10247776657342911,-0.509459138,0.8531472086906433,43,531,17858
2026-03-06T22:28:40.464Z,58.369998931884766,11,986.1383666992188,-4749,173,2339,139,-1006,-693,,,,0.074157521,0.23046815395355225,-0.464171171,0.8519265055656433,43,531,17787
2026-03-06T22:28:40.424Z,58.439998626708984,11,986.0759887695312,-310,885,4094,-1361,-710,-102,,,,0.044982795,0.12396208196878433,-0.393126428,0.9099097847938538,38,523,17744
2026-03-06T22:28:40.384Z,58.349998474121094,11,986.0993652,219,632,3887,485,809,-244,,,,0.026672294,0.12084929645061493,-0.376708031,0.9179664254188538,38,523,17772
2026-03-06T22:28:40.344Z,58.349998474121094,11,986.0759887695312,-270,1494,4414,262,-120,256,,,,0.025024350732564926,0.14276085793972015,-0.375182152,0.9155250191688538,38,523,17603
2026-03-06T22:28:40.304Z,58.349998474121094,11,986.0759887695312,-1941,-2189,3340,362,-1602,489,,,,-0.04357899,0.1993403136730194,-0.365416557,0.9081397652626038,28,506,17617
2026-03-06T22:28:40.264Z,58.29999923706055,11,986.0993652,-996,-1387,3613,-143,1292,3,,,,-0.050964225,0.16198688745498657,-0.364134818,0.9157081246376038,28,506,17687
2026-03-06T22:28:40.224Z,58.31999969482422,11,986.0759887695312,-385,-342,3787,-340,935,-1,,,,-0.015685994,0.13012662529945374,-0.353636801,0.926084042,28,506,17758
2026-03-06T22:28:40.184Z,58.349998474121094,11,986.0525512695312,84,-169,3861,-587,-148,-275,,,,-0.01013181,0.12518277764320374,-0.353941977,0.926755428,19,491,17887
2026-03-06T22:28:40.144Z,58.25999832,11,986.0993652,-2310,686,3207,514,156,-252,,,,0.053222518,0.17205765843391418,-0.373412132,0.9099708199501038,19,491,18107
2026-03-06T22:28:40.104Z,58.21999740600586,11,986.1383666992188,-2214,-33,3565,-443,166,516,,,,0.053649765,0.15637166798114777,-0.402403742,0.9003883004188538,13,479,18092
2026-03-06T22:28:40.064Z,58.25,11,986.1149902,298,1363,4558,122,1269,590,,,,0.028259205,0.088744886,-0.450560361,0.8878151178359985,13,479,18077
2026-03-06T22:28:40.024Z,58.13999938964844,11,986.1149902,-1875,-1766,4462,-125,56,729,,,,-0.004211415,0.177794948,-0.559202671,0.8096902966499329,3,463,18152
2026-03-06T22:28:39.984Z,58.07999801635742,11,986.0993652,-647,-1508,3861,1136,-671,750,,,,-0.028503345,0.13446010649204254,-0.657591105,0.7406597137451172,3,463,18227
2026-03-06T22:28:39.944Z,58.03999710083008,11,986.0993652,-710,-807,3738,-459,237,251,,,,-0.01757808,0.11840789765119553,-0.668272197,0.7341289520263672,0,463,18626
2026-03-06T22:28:39.904Z,57.959999084472656,11,986.1383666992188,-746,-848,4089,-770,54,67,,,,-0.00598143,0.10223362594842911,-0.676084697,0.729551375,0,444,18657
2026-03-06T22:28:39.864Z,57.89999771118164,11,986.1383666992188,232,-396,4457,-269,436,-237,,,,-0.000793455,0.089294203,-0.667905986,0.7388286590576172,0,444,18657
2026-03-06T22:28:39.824Z,57.89999771118164,11,986.1149902,695,-27,4498,34,-190,-1046,,,,-0.004699695,0.11675995588302612,-0.60534513,0.7872904539108276,0,441,18486
2026-03-06T22:28:39.784Z,57.73999786376953,11,986.0993652,-929,-2018,4710,1070,263,46,,,,-0.007263165,0.15765340626239777,-0.615354896,0.7722148299217224,0,441,18486
2026-03-06T22:28:39.744Z,57.62999725341797,11,986.1149902,-2333,-863,3002,-427,-1693,701,,,,0.032287515699863434,0.15869100391864777,-0.657224894,0.7360210418701172,0,441,18517
2026-03-06T22:28:39.704Z,57.62999725341797,11,986.1149902,-1525,132,3621,-1498,-166,1768,,,,0.055236675,0.12628141045570374,-0.709714949,0.6907941102981567,0,431,18641
2026-03-06T22:28:39.664Z,57.62999725341797,11,986.1383666992188,-1577,-383,3920,-1224,52,2167,,,,0.061340175569057465,0.10498020052909851,-0.762021959,0.6359236836433411,0,431,18800
2026-03-06T22:28:39.624Z,57.63999938964844,11,986.1149902,-513,850,4508,-750,466,2296,,,,0.040710345,0.060241546,-0.835386038,0.5447984337806702,0,428,18689
2026-03-06T22:28:39.584Z,57.61000061035156,11,986.1383666992188,-339,-211,4047,-572,399,1541,,,,0.039977923,0.052368029952049255,-0.867551506,0.4928576350212097,0,428,18752
2026-03-06T22:28:39.544Z,57.61000061035156,11,986.1383666992188,-209,230,4218,-507,3,1916,,,,0.046264529,0.043640024960041046,-0.896604121,0.43810921907424927,0,432,18641
2026-03-06T22:28:39.504Z,57.56999969482422,11,986.0993652,-643,17,4099,-406,-132,1826,,,,0.05517564,0.054565288,-0.921262264,0.3809804618358612,0,432,18657
2026-03-06T22:28:39.464Z,57.529998779296875,11,986.0993652,-575,-942,4031,554,-504,2029,,,,0.052612170577049255,0.083068632,-0.938596249,0.33062660694122314,0,432,18563
2026-03-06T22:28:39.424Z,57.50999832,11,986.1149902,-600,-550,4444,846,-170,1624,,,,0.048950069,0.11401338130235672,-0.957700193,0.25945979356765747,0,436,18563
2026-03-06T22:28:39.384Z,57.43000030517578,11,986.1149902,-961,-1121,4109,-156,-479,1365,,,,0.065978833,0.11566132307052612,-0.969479918,0.20556588470935822,0,436,18594
2026-03-06T22:28:39.344Z,57.40999984741211,11,986.1383666992188,-822,-1852,3579,196,-1043,1739,,,,0.094299078,0.12603726983070374,-0.984494567,0.077148236,0,442,18673
2026-03-06T22:28:39.304Z,57.529998779296875,11,986.1383666992188,-502,-1817,3680,-109,-350,2156,,,,0.10424777865409851,0.11822479218244553,-0.987180114,0.024658139795064926,0,442,18517
2026-03-06T22:28:39.264Z,57.529998779296875,11,986.1383666992188,-1208,-568,3938,-927,-677,1191,,,,-0.119994812,-0.086852804,0.9889500737190247,0.00390624,0,456,18610
2026-03-06T22:28:39.224Z,57.63999938964844,11,986.0993652,-422,-900,3804,-745,-100,912,,,,-0.139464974,-0.055847026,0.9877294301986694,0.042358290404081345,0,465,18501
2026-03-06T22:28:39.184Z,57.63999938964844,11,986.0993652,-1307,-901,3819,-631,-1065,480,,,,-0.203002408,-0.02832024,0.9761327505111694,0.071655087,0,465,18424
2026-03-06T22:28:39.144Z,57.66999816894531,11,986.1149902,-2071,-122,4181,-307,-653,531,,,,-0.223632246,-0.019103955,0.9704564809799194,0.088012472,0,485,18455
2026-03-06T22:28:39.104Z,57.66999816894531,11,986.1773681640625,-3518,-675,2623,-189,-1230,955,,,,-0.253844559,-0.00598143,0.9597753882408142,0.11938446015119553,0,485,18486
2026-03-06T22:28:39.064Z,57.69999694824219,11,986.1773681640625,-2326,313,3400,-1511,145,1143,,,,-0.233764052,0.024780210107564926,0.9589819312095642,0.15814168751239777,0,485,18439
2026-03-06T22:28:39.024Z,57.75,11,986.1383666992188,-1957,304,3701,-1127,597,1160,,,,-0.200377911,0.062988117,0.9484838843345642,0.23699890077114105,0,485,18393
2026-03-06T22:28:38.984Z,57.78999710083008,11,986.1383666992188,-1713,194,3755,-627,203,873,,,,-0.190917477,0.073425107,0.94109869,0.2691033184528351,4,504,18182
2026-03-06T22:28:38.944Z,57.79999923706055,11,986.0759887695312,-1569,-106,3793,-353,78,797,,,,-0.187316418,0.085387968,0.9146705269813538,0.34777742624282837,4,504,18092
2026-03-06T22:28:38.904Z,57.66999816894531,11,986.1149902,-1642,306,3807,-435,-224,610,,,,-0.193053707,0.095824949,0.9049659371376038,0.3667593002319336,4,504,17744
2026-03-06T22:28:38.864Z,57.93000030517578,11,986.1149902,-2015,58,3696,50,-514,621,,,,-0.216002867,0.092773199,0.8901344537734985,0.3902577757835388,16,514,17617
2026-03-06T22:28:38.824Z,58.14999771118164,11,986.1383666992188,-1754,3,3751,-320,299,122,,,,-0.206664503,0.095092528,0.8884865045547485,0.3984364867210388,16,514,17505
2026-03-06T22:28:38.784Z,58.15999984741211,11,986.1149902,-1794,-17,3715,-24,-37,170,,,,-0.20745796,0.095763914,0.8865944147109985,0.40209856629371643,16,514,17354
2026-03-06T22:28:38.744Z,58.15999984741211,11,986.0525512695312,-1818,22,3709,-29,-7,100,,,,-0.207641065,0.098083243,0.8831764459609985,0.40887346863746643,27,509,17354
2026-03-06T22:28:38.704Z,58.29999923706055,11,986.0759887695312,-1792,-8,3716,-52,-38,97,,,,-0.208129346,0.1000363677740097,0.8787208795547485,0.41766250133514404,27,509,17450
2026-03-06T22:28:38.664Z,58.29999923706055,11,986.0993652,-1890,0,3707,-23,-9,69,,,,-0.209105909,0.10070774704217911,0.8779274225234985,0.41863906383514404,33,500,17422
2026-03-06T22:28:38.624Z,58.41999816894531,11,986.0759887695312,-1634,-373,3687,-20,-50,57,,,,-0.209166944,0.10247776657342911,0.8674294352531433,0.43957406282424927,33,500,17381
2026-03-06T22:28:38.584Z,58.599998474121094,11,986.1383666992188,-1810,-38,3754,63,91,-40,,,,-0.205260709,0.10620089620351791,0.8695046305656433,0.43640023469924927,33,500,17533
2026-03-06T22:28:38.544Z,58.599998474121094,11,986.0993652,-1845,47,3706,-27,-12,121,,,,-0.205260709,0.10681124776601791,0.8680397868156433,0.43920785188674927,30,500,17408
2026-03-06T22:28:38.504Z,58.779998779296875,11,986.1383666992188,-1804,22,3708,-32,17,79,,,,-0.205016568,0.10644503682851791,0.8660866618156433,0.44317513704299927,30,500,17715
2026-03-06T22:28:38.464Z,59.05999755859375,11,986.1773681640625,-1520,-38,3995,7,14,41,,,,-0.185180187,0.10717745870351791,0.8563820719718933,0.4698474407196045,25,500,17701
2026-03-06T22:28:38.424Z,59.04999923706055,11,986.1383666992188,-1845,470,3803,144,589,108,,,,-0.177428737,0.096496336,0.8657814860343933,0.4577014744281769,25,500,17575
2026-03-06T22:28:38.384Z,59.00999832,11,986.1539916992188,-1713,33,3783,-164,-57,-141,,,,-0.17669633,0.099487051,0.8673684000968933,0.4544055759906769,25,500,17603
2026-03-06T22:28:38.344Z,59.029998779296875,11,986.1383666992188,-1501,35,3864,-51,50,19,,,,-0.174865276,0.099792227,0.8668190836906433,0.4559924900531769,25,500,17830
2026-03-06T22:28:38.304Z,59.1099968,11,986.0993652,-1677,142,3830,26,-56,-16,,,,-0.177428737,0.10302708297967911,0.8672463297843933,0.4535510838031769,25,500,17931
2026-03-06T22:28:38.264Z,59.04999923706055,11,986.1539916992188,-1582,306,3818,90,51,-50,,,,-0.17059283,0.10205052047967911,0.8725563287734985,0.44604378938674927,25,500,17873
2026-03-06T22:28:38.224Z,59.029998779296875,11,986.1773681640625,-1432,228,3864,-315,164,23,,,,-0.164733469,0.10436984896659851,0.8736549615859985,0.44567757844924927,25,500,18107
2026-03-06T22:28:38.184Z,59.029998779296875,11,986.1383666992188,-1663,202,3784,86,54,200,,,,-0.162597239,0.099975333,0.8734108209609985,0.4478748142719269,25,500,18107
2026-03-06T22:28:38.144Z,58.96999740600586,11,986.1539916992188,-1563,297,3805,-40,91,30,,,,-0.158141688,0.10095188766717911,0.8724952936172485,0.4511096775531769,25,500,18063
2026-03-06T22:28:38.104Z,58.959999084472656,11,986.1539916992188,-1440,205,3955,-56,122,37,,,,-0.152160257,0.098571524,0.8738380670547485,0.4509876072406769,25,500,18004
2026-03-06T22:28:38.064Z,58.959999084472656,11,986.1383666992188,-1754,262,3812,82,8,13,,,,-0.164123118,0.10369846224784851,0.8709084391593933,0.4514148533344269,25,500,18317
2026-03-06T22:28:38.024Z,58.88999938964844,11,986.1383666992188,-1309,217,3796,-41,-153,93,,,,-0.166320369,0.10266087204217911,0.8691384196281433,0.4541614353656769,25,500,18348
2026-03-06T22:28:37.984Z,58.779998779296875,11,986.1383666992188,-1825,248,3706,162,-59,204,,,,-0.17669633,0.10528537631034851,0.8645607829093933,0.4583728611469269,25,500,18077
2026-03-06T22:28:37.944Z,58.72999954223633,11,986.1773681640625,-1715,66,3742,-70,-292,57,,,,-0.182738796,0.10852023214101791,0.8623635172843933,0.4594714641571045,25,500,17858
2026-03-06T22:28:37.904Z,58.72999954223633,10,986.1773681640625,-1772,239,3757,-7,-194,83,,,,-0.185180187,0.11273164302110672,0.8599831461906433,0.4619128704071045,25,500,17787
2026-03-06T22:28:37.864Z,58.77000045776367,10,986.1929931640625,-1540,96,3749,-110,-64,30,,,,-0.187438488,0.10552951693534851,0.8591896891593933,0.4641711711883545,25,500,17547
2026-03-06T22:28:37.824Z,58.66999816894531,10,986.1539916992188,-1691,266,3975,132,-30,-129,,,,-0.190612301,0.10259983688592911,0.8623024821281433,0.4576404392719269,25,500,17533
2026-03-06T22:28:37.784Z,58.64999771118164,10,986.1539916992188,-1786,-100,3558,220,38,-127,,,,-0.198485821,0.09912084,0.8632790446281433,0.4531848728656769,25,500,17463
2026-03-06T22:28:37.744Z,58.64999771118164,10,986.1383666992188,-2496,694,3585,152,-435,-137,,,,-0.201781705,0.10534641146659851,0.8627907633781433,0.4512927830219269,25,500,17463
2026-03-06T22:28:37.704Z,58.53999710083008,10,986.1149902,-1435,-131,3889,-44,421,28,,,,-0.194823712,0.092406988,0.8648659586906433,0.4531848728656769,25,500,17381
2026-03-06T22:28:37.664Z,58.46999740600586,10,986.0993652,-1618,-26,3891,110,-23,94,,,,-0.199523419,0.085326932,0.8636452555656433,0.4548328220844269,25,500,17046
2026-03-06T22:28:37.624Z,58.50999832,10,986.0993652,-1061,-215,3954,94,-25,131,,,,-0.209533155,0.061218105256557465,0.8611428141593933,0.4590442478656769,25,500,16800
2026-03-06T22:28:37.584Z,58.84000015258789,10,986.0759887695312,-1535,-229,3737,311,274,14,,,,-0.215148374,0.05395494,0.8604714274406433,0.4585559666156769,25,500,16292
2026-03-06T22:28:37.544Z,59.209999084472656,10,986.0369873046875,-1545,-303,3736,227,-49,70,,,,-0.221984297,0.046081424,0.8602883219718933,0.4564197361469269,25,500,16209
2026-03-06T22:28:37.504Z,59.29999923706055,10,986.0525512695312,-1883,-556,3951,343,-186,13,,,,-0.234984756,0.03771963,0.8594338297843933,0.4523303806781769,25,500,16150
2026-03-06T22:28:37.464Z,59.39999771118164,10,986.0057983398438,-1559,-563,3942,529,-125,-5,,,,-0.247496918,0.027892996,0.8608986735343933,0.44354134798049927,25,500,16044
2026-03-06T22:28:37.424Z,59.41999816894531,10,986.0759887695312,-2032,-969,3647,409,-1122,-287,,,,-0.257384598,-0.003112785,0.8757911920547485,0.40820208191871643,25,500,16067
2026-03-06T22:28:37.384Z,59.44999694824219,10,986.0525512695312,-1716,-922,3757,-137,737,-166,,,,-0.241881698,-0.00646971,0.8837257623672485,0.4005116820335388,25,500,15917
2026-03-06T22:28:37.344Z,59.44999694824219,10,986.0759887695312,-1724,-592,3738,-136,131,-102,,,,-0.236144409,-0.002746575,0.8863502740859985,0.3981923460960388,25,500,15725
2026-03-06T22:28:37.304Z,59.50999832,10,986.0759887695312,-1318,-857,3571,-22,178,-113,,,,-0.2308954,-0.01171872,0.8964210152626038,0.3779897391796112,25,500,15826
2026-03-06T22:28:37.264Z,59.80999755859375,10,986.1149902,-1704,-721,3714,-21,-139,-358,,,,-0.236144409,-0.007263165,0.9006934762001038,0.364439994,25,500,15928
2026-03-06T22:28:37.224Z,60.1099968,10,986.1383666992188,-1693,-535,3763,69,-95,-470,,,,-0.239013061,-0.005065905,0.9142432808876038,0.32702553272247314,25,500,16067
2026-03-06T22:28:37.184Z,60.3599968,10,986.1929931640625,-1420,-534,3808,341,45,-615,,,,-0.227843657,-0.009216285,0.938291073,0.25988703966140747,25,500,15963
2026-03-06T22:28:37.144Z,60.369998931884766,10,986.1773681640625,-1858,11,3652,-248,127,-371,,,,-0.22491397,-0.003234855,0.9418920874595642,0.24932797253131866,25,500,15986
2026-03-06T22:28:37.104Z,60.44999694824219,10,986.1539916992188,-1845,-634,3751,504,-100,-148,,,,-0.22906436,-0.011901825,0.9428686499595642,0.24151548743247986,25,500,16009
2026-03-06T22:28:37.064Z,60.50999832,10,986.1539916992188,-1791,-374,3657,76,134,-345,,,,-0.225280181,-0.013977015,0.9462255835533142,0.23150575160980225,25,500,16244
2026-03-06T22:28:37.024Z,60.69999694824219,11,986.1773681640625,-1680,-440,3735,129,142,-175,,,,-0.220092207,-0.018737745,0.9503759741783142,0.21893253922462463,25,500,16425
2026-03-06T22:28:36.984Z,60.75,11,986.1929931640625,-1787,-302,3665,39,10,-140,,,,-0.222167403,-0.018249465,0.9513525366783142,0.21252386271953583,25,500,16389
2026-03-06T22:28:36.944Z,60.709999084472656,11,986.2163696289062,-1741,-417,3592,110,75,0,,,,-0.215941831,-0.022338809,0.9529394507408142,0.21154731512069702,25,500,16474
2026-03-06T22:28:36.904Z,60.66999816894531,11,986.1539916992188,-1443,-306,3855,-79,374,6,,,,-0.197387189,-0.022827091,0.9566625952720642,0.21264593303203583,25,500,16548
2026-03-06T22:28:36.864Z,60.52000045776367,11,986.1149902,-1064,-426,3885,-105,802,105,,,,-0.163940012,-0.031005779,0.9622167944908142,0.21508733928203583,25,500,16598
2026-03-06T22:28:36.824Z,60.46999740600586,11,986.1149902,-1216,-445,3940,18,54,-47,,,,-0.164428294,-0.031494059,0.9622778296470642,0.21435491740703583,25,500,16341
2026-03-06T22:28:36.784Z,60.39999771118164,11,986.1383666992188,-1259,-448,3934,29,-15,-23,,,,-0.167357966,-0.032409586,0.9619726538658142,0.21307317912578583,25,500,16724
2026-03-06T22:28:36.744Z,60.28999710083008,11,986.1149902,-1262,-475,3927,17,-114,15,,,,-0.18054153,-0.032348551,0.9578832983970642,0.22082462906837463,25,500,16851
2026-03-06T22:28:36.704Z,60.279998779296875,11,986.1383666992188,-1241,-537,3892,-127,-48,201,,,,-0.185058117,-0.031371988,0.9561132788658142,0.22473086416721344,25,500,16994
2026-03-06T22:28:36.664Z,59.94999694824219,11,986.1149902,-1543,-925,3599,-19,-257,168,,,,-0.194091305,-0.031066814,0.9552587866783142,0.22088566422462463,25,500,17165
2026-03-06T22:28:36.624Z,59.8599968,11,986.1539916992188,-1424,-571,3843,-70,-221,-37,,,,-0.194640622,-0.024597105,0.9559301733970642,0.21826115250587463,25,500,17112
2026-03-06T22:28:36.584Z,59.8599968,11,986.1383666992188,-1275,-639,4091,-136,26,51,,,,-0.189574704,-0.02465814,0.9572119116783142,0.21691839396953583,25,500,16942
2026-03-06T22:28:36.544Z,59.73999786376953,11,986.2163696289062,-1648,187,3741,20,41,101,,,,-0.184875011,-0.00500487,0.9550756812095642,0.23132264614105225,25,500,16929
2026-03-06T22:28:36.504Z,59.66999816894531,11,986.2319946289062,-1442,-13,3831,-580,204,472,,,,-0.176024944,0,0.9523290991783142,0.24902279675006866,25,500,17192
2026-03-06T22:28:36.464Z,59.6099968,11,986.2553711,-811,-391,3736,-291,214,803,,,,-0.156554773,0.001525875,0.8785377740859985,0.4511707127094269,25,500,16981
2026-03-06T22:28:36.424Z,59.62999725341797,11,986.2319946289062,-483,-929,3874,-130,-115,2379,,,,-0.158202723,-0.00500487,0.8457009792327881,0.5095812082290649,25,500,16877
2026-03-06T22:28:36.384Z,59.50999832,11,986.1383666992188,-1054,-908,3995,-232,-126,1927,,,,-0.15899618,0.003967275,0.8190286755561829,0.5511460304260254,25,500,17125
2026-03-06T22:28:36.344Z,59.439998626708984,11,986.1539916992188,-1013,-1218,3848,-681,-305,1418,,,,-0.173705608,-0.010314915,0.723997176,0.6674177050590515,25,500,17125
2026-03-06T22:28:36.304Z,59.19999694824219,11,986.1929931640625,-817,-1561,3864,-190,-430,1409,,,,-0.178710476,-0.003478995,0.6964703798294067,0.6948834657669067,25,500,17007
2026-03-06T22:28:36.264Z,59.099998474121094,11,986.1929931640625,-840,-1402,3831,-512,-587,1257,,,,-0.178771511,0.011657685041427612,0.6733991503715515,0.717161238,25,500,17259
2026-03-06T22:28:36.224Z,59.1099968,11,986.1929931640625,-360,-1375,3755,-639,-326,1113,,,,-0.174010783,0.030822675675153732,0.6544783115386963,0.7350444793701172,25,500,17232
2026-03-06T22:28:36.184Z,59.03999710083008,11,986.1773681640625,-626,-1094,4088,-873,-957,773,,,,-0.180236354,0.064391926,0.6337874531745911,0.7493877410888672,25,500,17219
2026-03-06T22:28:36.144Z,59.04999923706055,11,986.1929931640625,-2014,232,3780,-9,-1285,878,,,,-0.106872283,0.182006374,0.3955678343772888,0.8937965631484985,25,500,17192
2026-03-06T22:28:36.104Z,58.89999771118164,11,986.1773681640625,-1379,-370,4012,-1354,566,3147,,,,-0.081786901,0.17071489989757538,0.2983390688896179,0.935422421,25,500,17219
2026-03-06T22:28:36.064Z,58.89999771118164,11,986.1773681640625,-1087,-924,3593,-1445,123,3269,,,,-0.044189341,0.182860866,0.088866957,0.9780858755111694,25,500,17272
2026-03-06T22:28:36.024Z,58.77000045776367,11,986.1773681640625,-1438,-261,3608,-677,-529,3002,,,,-0.03930654,0.1962275207042694,-0.007995585,0.9796727895736694,25,500,17436
2026-03-06T22:28:35.984Z,58.79999923706055,11,986.1539916992188,-2460,544,4702,-179,-512,2163,,,,-0.021362251,0.22491396963596344,-0.118285827,0.9669164419174194,25,500,17477
2026-03-06T22:28:35.944Z,58.75999832,11,986.1383666992188,-1314,-1188,3624,666,5,611,,,,-0.033752356,0.21240179240703583,-0.240722045,0.9464086890220642,25,500,17547
2026-03-06T22:28:35.904Z,58.65999984741211,11,986.1539916992188,-1462,-622,4151,-611,76,790,,,,-0.009582495,0.20239205658435822,-0.287780017,0.935971737,25,500,17505
2026-03-06T22:28:35.864Z,58.5,11,986.1773681640625,-908,188,3681,-780,56,796,,,,0.047302123,0.1951899230480194,-0.371214867,0.9064918160438538,25,500,17367
2026-03-06T22:28:35.824Z,58.55999755859375,11,986.1383666992188,-1362,1015,3888,-496,-656,352,,,,0.11846893280744553,0.14813195168972015,-0.438231289,0.8785377740859985,25,500,17259
2026-03-06T22:28:35.784Z,58.52000045776367,11,986.1539916992188,-623,829,4035,-22,242,-483,,,,0.089538343,0.14581261575222015,-0.448668271,0.8771339654922485,25,500,17408
2026-03-06T22:28:35.744Z,58.55999755859375,11,986.1929931640625,-1047,237,4175,683,156,-69,,,,0.076720998,0.16662554442882538,-0.458861142,0.8693215250968933,25,500,17533
2026-03-06T22:28:35.704Z,58.48999786376953,11,986.1539916992188,-2344,1187,4237,700,-985,-154,,,,0.076843068,0.20196481049060822,-0.458433896,0.8619973063468933,25,500,17477
2026-03-06T22:28:35.664Z,58.38999938964844,11,986.1383666992188,-2028,-1466,3361,1999,-572,-291,,,,0.010803194716572762,0.22772158682346344,-0.448729306,0.8640725016593933,25,500,17463
2026-03-06T22:28:35.624Z,58.31999969482422,11,986.1149902,-1829,-1060,3986,-119,761,-503,,,,0.012329069897532463,0.20880073308944702,-0.446226895,0.8700539469718933,25,500,17436
2026-03-06T22:28:35.584Z,58.23999786376953,11,986.1149902,-1345,-847,3958,-152,345,-530,,,,0.011657685041427612,0.1906733363866806,-0.443541348,0.8756080865859985,25,500,17340
2026-03-06T22:28:35.544Z,58.19999694824219,11,986.1149902,-799,-375,3759,-85,584,-391,,,,0.02978508,0.1979975402355194,-0.417845607,0.8861061334609985,25,500,17219
2026-03-06T22:28:35.504Z,58.21999740600586,11,986.1539916992188,-2398,-205,3522,-156,-1496,-793,,,,0.064391926,0.23870788514614105,-0.407042414,0.8792701959609985,25,500,17205
2026-03-06T22:28:35.464Z,58.30999755859375,11,986.1383666992188,-2108,371,3754,-367,-1512,6,,,,0.10534641146659851,0.23767028748989105,-0.452879697,0.8527809977531433,25,500,17179
2026-03-06T22:28:35.424Z,58.23999786376953,11,986.1539916992188,-2180,285,3681,-48,208,-176,,,,0.10595676302909851,0.23138368129730225,-0.460448027,0.8503395915031433,25,500,17139
2026-03-06T22:28:35.384Z,58.04999923706055,11,986.1773681640625,-1648,0,3738,334,223,-18,,,,0.098632559,0.23126161098480225,-0.470213652,0.8459451198577881,25,500,17246
2026-03-06T22:28:35.344Z,58.1099968,11,986.1773681640625,-1947,-26,530,145,-465,-181,,,,0.14746056497097015,0.3878163993358612,-0.491575897,0.7655619978904724,25,500,17259
2026-03-06T22:28:35.304Z,58.029998779296875,11,986.1929931640625,-6878,-4127,777,2789,-3162,1223,,,,0.10552951693534851,0.4752185046672821,-0.499937683,0.716245711,25,500,17340
2026-03-06T22:28:35.264Z,58.19999694824219,11,986.1929931640625,-3390,-2249,2816,-131,2606,1589,,,,0.060851894319057465,0.40728655457496643,-0.55114603,0.725645125,25,500,17205
2026-03-06T22:28:35.224Z,58.279998779296875,11,986.1773681640625,-1640,-928,3641,-950,2214,91,,,,0.040832415,0.2683708965778351,-0.583311498,0.7654399275779724,25,500,17381
2026-03-06T22:28:35.184Z,58.22999954223633,11,986.1539916992188,-1439,-1116,3785,-475,1284,-398,,,,0.037902735,0.23022401332855225,-0.583677709,0.7777079939842224,25,500,17179
2026-03-06T22:28:35.144Z,58.39999771118164,11,986.1539916992188,-1052,-499,4108,-811,636,-504,,,,0.057189796,0.1925043910741806,-0.586302221,0.7847269773483276,25,500,17422
2026-03-06T22:28:35.104Z,58.34000015258789,11,986.1929931640625,-2554,-286,3426,-617,381,-356,,,,0.11804168671369553,0.181457058,-0.598448157,0.7712993025779724,25,500,17408
2026-03-06T22:28:35.064Z,58.279998779296875,11,986.1929931640625,-1491,557,3836,-952,389,149,,,,0.13391079008579254,0.12707486748695374,-0.624510109,0.7587870955467224,25,500,17450
2026-03-06T22:28:35.024Z,58.04999923706055,11,986.1929931640625,-945,826,3889,-353,528,308,,,,0.12951627373695374,0.11181612312793732,-0.636839211,0.7517070770263672,25,500,17395
2026-03-06T22:28:34.984Z,57.94999694824219,11,986.2163696289062,-766,938,4119,-160,374,285,,,,0.12499967962503433,0.12023895233869553,-0.657530069,0.7330913543701172,25,500,17519
2026-03-06T22:28:34.944Z,57.93000030517578,11,986.1539916992188,-1545,218,3979,92,-507,859,,,,0.12750211358070374,0.14257775247097015,-0.668516338,0.718626082,25,500,17575
2026-03-06T22:28:34.904Z,57.959999084472656,11,986.1773681640625,-1119,-740,4041,179,-344,856,,,,0.0756834,0.15875203907489777,-0.635313332,0.7518901824951172,25,500,17547
2026-03-06T22:28:34.864Z,58.099998474121094,11,986.1383666992188,-3635,71,3523,-746,-109,552,,,,0.13018766045570374,0.20739692449569702,-0.565611362,0.7874125242233276,25,500,17575
2026-03-06T22:28:34.824Z,58.099998474121094,11,986.1149902,-1800,630,3526,-850,-482,473,,,,0.14196741580963135,0.14434777200222015,-0.563597202,0.8007792234420776,25,500,17519
2026-03-06T22:28:34.784Z,58.02000045776367,11,986.1773681640625,-2853,-929,3230,-532,622,328,,,,0.10516330599784851,0.22863711416721344,-0.47326538,0.8441751003265381,25,500,17533
2026-03-06T22:28:34.744Z,57.91999816894531,11,986.1929931640625,-1974,-495,3481,1372,-410,-269,,,,0.037292384,0.21899357438087463,-0.393919885,0.8918434381484985,25,500,17408
2026-03-06T22:28:34.704Z,57.75999832,11,986.1929931640625,-1534,-589,3610,408,789,-1163,,,,0.023376405239105225,0.1998896300792694,-0.353697836,0.9133887887001038,25,500,17408
2026-03-06T22:28:34.664Z,57.75999832,11,986.1539916992188,-1295,-255,3918,305,612,-1440,,,,0.017394975,0.1863398551940918,-0.304686725,0.933835506,25,500,17340
2026-03-06T22:28:34.624Z,57.82999801635742,12,986.1773681640625,-1683,732,3487,316,215,-1616,,,,0.01745601,0.21038764715194702,-0.121093437,0.9699071645736694,25,500,17381
2026-03-06T22:28:34.584Z,57.81999969482422,12,986.1929931640625,-1629,496,3988,133,-31,-1574,,,,0.019836375,0.20971626043319702,-0.063659504,0.9754613637924194,25,500,17381
2026-03-06T22:28:34.544Z,57.779998779296875,12,986.1929931640625,-1410,-1012,4475,437,256,-819,,,,0.00866697,0.20214791595935822,-0.020629831,0.9790624380111694,25,500,17408
2026-03-06T22:28:34.504Z,57.82999801635742,12,986.1539916992188,-2207,1234,3393,-916,-154,-554,,,,0.036926176,0.20489449799060822,0.008605935,0.9780248403549194,25,500,17205
2026-03-06T22:28:34.464Z,57.81999969482422,12,986.1539916992188,-1625,1118,3321,-431,217,-702,,,,0.040710345,0.1983637511730194,0.056213234,0.9776586294174194,25,500,17299
2026-03-06T22:28:34.424Z,57.78999710083008,12,986.1929931640625,-1196,349,3623,472,91,-854,,,,-0.045349006,0.1831660270690918,0.26019221544265747,0.9468969702720642,25,500,17340
2026-03-06T22:28:34.384Z,57.72999954223633,12,986.1539916992188,-1542,478,3658,1379,-635,-973,,,,-0.071838193,0.1878657341003418,0.30822673439979553,0.929746151,25,500,17205
2026-03-06T22:28:34.344Z,57.69999694824219,12,986.1929931640625,-1061,77,4001,773,-298,-985,,,,-0.097533926,0.1887812614440918,0.3742666244506836,0.9025855660438538,25,500,17286
2026-03-06T22:28:34.304Z,57.65999984741211,12,986.1539916992188,-2785,-6,3633,230,-787,-1162,,,,-0.150512308,0.1958613097667694,0.4667956829071045,0.8491188883781433,25,500,17547
2026-03-06T22:28:34.264Z,57.55999755859375,12,986.1383666992188,-2217,-1742,2912,2089,-364,-1171,,,,-0.19000195,0.16308552026748657,0.5215440988540649,0.8156107068061829,25,500,17575
2026-03-06T22:28:34.224Z,57.54999923706055,12,986.1539916992188,-348,304,3898,1391,695,-1302,,,,-0.252806962,0.003601065,0.929135799,0.2695915997028351,25,500,17603
2026-03-06T22:28:34.184Z,57.599998474121094,12,986.1383666992188,-1183,-2700,3756,953,404,-2460,,,,-0.280089617,-0.037902735,0.9530615210533142,0.10821505635976791,25,500,17715
2026-03-06T22:28:34.144Z,57.73999786376953,12,986.1149902,-3297,1851,2666,977,-861,-2754,,,,0.3077384829521179,0.013793909922242165,-0.950742185,0.033508215099573135,25,500,17801
2026-03-06T22:28:34.104Z,57.709999084472656,12,986.1383666992188,-2545,227,3159,-128,-91,-2243,,,,0.2795403003692627,0.091918707,-0.905515254,0.3056022524833679,25,500,17830
2026-03-06T22:28:34.064Z,57.62999725341797,12,986.1539916992188,-2149,-311,3055,2400,-73,-1892,,,,0.2713616192340851,0.11297578364610672,-0.890927911,0.34606844186782837,25,500,17858
2026-03-06T22:28:34.024Z,57.57999801635742,12,986.1773681640625,-2895,-1841,3738,1867,103,-1795,,,,0.21801702678203583,0.23614440858364105,-0.789060473,0.5234361290931702,25,500,17772
2026-03-06T22:28:33.984Z,57.47999954223633,12,986.1539916992188,-3173,-421,2817,133,-275,-276,,,,0.21295110881328583,0.23901306092739105,-0.775876939,0.5435777306556702,25,500,17801
2026-03-06T22:28:33.944Z,57.46999740600586,12,986.1539916992188,-2156,-358,3670,166,1181,-669,,,,0.10089085251092911,0.22582949697971344,-0.66558665,0.7040997743606567,25,500,17772
2026-03-06T22:28:33.904Z,57.40999984741211,12,986.1149902,-1657,-881,3276,1542,1078,-2626,,,,0.060790859162807465,0.22021427750587463,-0.598875403,0.7675151228904724,25,500,17744
2026-03-06T22:28:33.864Z,57.30999755859375,12,986.1383666992188,-1554,-457,3889,801,1318,-2310,,,,0.015563924796879292,0.20440621674060822,-0.456236631,0.8659035563468933,25,500,17631
2026-03-06T22:28:33.824Z,57.22999954223633,12,986.1929931640625,-1559,-756,3706,798,83,-1019,,,,-0.001525875,0.21374456584453583,-0.422118068,0.8809181451797485,25,500,17408
2026-03-06T22:28:33.784Z,57.15999984741211,12,986.2163696289062,-1692,-367,3830,823,92,-1181,,,,-0.0158691,0.22198429703712463,-0.352904379,0.9087501168251038,25,500,17354
2026-03-06T22:28:33.744Z,57.05999755859375,12,986.2163696289062,-1846,-311,3835,215,262,-1295,,,,-0.008605935,0.21820011734962463,-0.316588551,0.923032284,25,500,17354
2026-03-06T22:28:33.704Z,57.06999969482422,12,986.2163696289062,-1634,-520,3739,-233,279,-991,,,,-0.00048828,0.21227972209453583,-0.290526599,0.932981014,25,500,17179
2026-03-06T22:28:33.664Z,57.03999710083008,12,986.1929931640625,-1491,-422,3899,170,-69,-19,,,,0.00280761,0.21466009318828583,-0.28698656,0.933530331,25,500,17072
2026-03-06T22:28:33.624Z,56.96999740600586,12,986.1929931640625,-2340,-650,3306,62,-126,-85,,,,0.02026362,0.2730095684528351,-0.263549119,0.924924374,25,500,17020
2026-03-06T22:28:33.584Z,57.00999832,12,986.1383666992188,-2160,-745,3366,-123,-297,20,,,,0.024047790095210075,0.2817986011505127,-0.2617791,0.922727108,25,500,17099
2026-03-06T22:28:33.544Z,57.07999801635742,12,986.1383666992188,-2183,-379,3451,-364,-111,-75,,,,0.032165445387363434,0.2835075855255127,-0.256713212,0.92333746,25,500,17139
2026-03-06T22:28:33.504Z,57.09000015258789,12,986.1383666992188,-2225,-394,3460,-64,-34,49,,,,0.036315825,0.2868644893169403,-0.262572557,0.920529842,25,500,17139
2026-03-06T22:28:33.464Z,57.21999740600586,12,986.1539916992188,-2178,-327,3455,-7,-38,-4,,,,0.035278231,0.2875969111919403,-0.256530106,0.921994686,25,500,17179
2026-03-06T22:28:33.424Z,57.39999771118164,12,986.1773681640625,-2292,-251,3429,17,-30,-44,,,,0.035217196,0.2909538447856903,-0.244689316,0.924191952,25,500,17205
2026-03-06T22:28:33.384Z,57.369998931884766,12,986.2163696289062,-2205,-459,3345,96,11,-111,,,,0.031127849593758583,0.2911369502544403,-0.237243041,0.926206112,25,500,17152
2026-03-06T22:28:33.344Z,57.279998779296875,12,986.2163696289062,-2165,-177,3551,69,52,-133,,,,0.034484774,0.2826530933380127,-0.234313369,0.929440975,25,500,17033
2026-03-06T22:28:33.304Z,57.349998474121094,12,986.2553711,-1987,-233,3580,-181,381,-142,,,,0.02990715,0.26147395372390747,-0.21343939,0.940793514,25,500,17165
2026-03-06T22:28:33.264Z,57.619998931884766,12,986.2553711,-2037,-310,3590,30,33,-125,,,,0.026306085288524628,0.2622673809528351,-0.199828595,0.9436621069908142,25,500,17059
2026-03-06T22:28:33.224Z,57.619998931884766,12,986.2553711,-2054,-269,3533,88,-32,-122,,,,0.024902280420064926,0.2648918926715851,-0.189269528,0.9451269507408142,25,500,16994
2026-03-06T22:28:33.184Z,57.54999923706055,12,986.2319946289062,-2234,-244,3383,39,-115,-168,,,,0.023864684626460075,0.2691033184528351,-0.175292522,0.9466528296470642,25,500,17099
2026-03-06T22:28:33.144Z,57.52000045776367,12,986.2319946289062,-2461,-228,3368,19,-88,-197,,,,0.02050776,0.2676384747028351,-0.160216868,0.9498266577720642,25,500,17072
2026-03-06T22:28:33.104Z,57.279998779296875,12,986.2163696289062,-1657,-123,3678,105,351,-160,,,,0.012268034741282463,0.23406922817230225,-0.147216424,0.9608740210533142,25,500,17086
2026-03-06T22:28:33.064Z,57.279998779296875,12,986.1929931640625,-1691,-180,3801,-124,379,123,,,,0.007995585,0.22961367666721344,-0.143004999,0.9626440405845642,25,500,17072
2026-03-06T22:28:33.024Z,57.38999938964844,12,986.1929931640625,-1655,-97,3846,128,96,159,,,,0.003234855,0.22753848135471344,-0.133544579,0.9645361304283142,25,500,17072
2026-03-06T22:28:32.984Z,57.439998626708984,12,986.1773681640625,-1666,-283,4232,-71,76,106,,,,0.00012207,0.22656191885471344,-0.134154931,0.9646582007408142,25,500,17165
2026-03-06T22:28:32.944Z,57.36000061035156,12,986.1773681640625,-1343,-399,3918,423,-149,127,,,,-0.017700151,0.20568795502185822,-0.104797095,0.9727758169174194,25,500,17072
2026-03-06T22:28:32.904Z,57.36000061035156,12,986.1773681640625,-533,-1177,3749,-681,922,330,,,,-0.013122525,0.16339069604873657,-0.07580547,0.9835180044174194,25,500,17020
2026-03-06T22:28:32.864Z,57.369998931884766,12,986.1773681640625,-580,-560,4053,-467,450,272,,,,-0.00903318,0.14910849928855896,-0.04492176,0.9877294301986694,25,500,17086
2026-03-06T22:28:32.824Z,57.369998931884766,12,986.1773681640625,-619,-391,4037,-251,227,212,,,,-0.00622557,0.14562951028347015,-0.004455555,0.9892552495002747,25,500,16981
2026-03-06T22:28:32.784Z,57.279998779296875,12,986.1773681640625,-1047,-270,3952,-400,-255,71,,,,-0.00012207,0.15576131641864777,0.030395429581403732,0.9873021841049194,25,500,17072
2026-03-06T22:28:32.744Z,57.279998779296875,12,986.1773681640625,-1390,259,4541,-584,-193,108,,,,0.013000454753637314,0.16619829833507538,0.05676255,0.9843114614486694,25,500,17219
2026-03-06T22:28:32.704Z,57.29999923706055,12,986.1773681640625,-1666,1191,3945,-782,-435,386,,,,0.045898318,0.1874384880065918,0.064941242,0.9790014028549194,25,500,17165
2026-03-06T22:28:32.664Z,57.32999801635742,12,986.1929931640625,-1539,685,3803,42,299,357,,,,0.038146876,0.17596390843391418,0.084045194,0.9800390005111694,25,500,17299
2026-03-06T22:28:32.624Z,57.279998779296875,12,986.2163696289062,-968,660,3979,117,687,380,,,,0.028076099,0.15612752735614777,0.099242911,0.9822973012924194,25,500,17367
2026-03-06T22:28:32.584Z,57.18000030517578,12,986.2553711,-429,-203,4143,422,563,306,,,,-0.025146419,0.15002402663230896,0.20330758392810822,0.9671605825424194,25,500,17436
2026-03-06T22:28:32.544Z,57.12999725341797,12,986.2319946289062,-2616,136,4392,-415,-1128,77,,,,-0.049682491,0.1848750114440918,0.25109797716140747,0.9487890601158142,25,500,17519
2026-03-06T22:28:32.504Z,57.12999725341797,12,986.2553711,-1859,-1041,3248,1232,-182,181,,,,-0.090942152,0.16723589599132538,0.2995597720146179,0.934812069,25,500,17505
2026-03-06T22:28:32.464Z,57.099998474121094,12,986.2319946289062,-255,-905,3795,360,564,222,,,,-0.105224341,0.11291474848985672,0.44134408235549927,0.8839088678359985,25,500,17603
2026-03-06T22:28:32.424Z,57.04999923706055,12,986.2319946289062,-462,-394,3684,-48,9,-217,,,,-0.109191611,0.12164275348186493,0.4841296076774597,0.8595559000968933,25,500,17422
2026-03-06T22:28:32.384Z,56.89999771118164,12,986.2163696289062,-844,-1709,4462,-236,-1048,-432,,,,-0.146728143,0.14092981815338135,0.6300032734870911,0.7493877410888672,25,500,17395
2026-03-06T22:28:32.344Z,56.89999771118164,12,986.2553711,-3019,573,3455,-665,-1043,-609,,,,-0.148559183,0.1878046989440918,0.6586287021636963,0.713316023,25,500,17519
2026-03-06T22:28:32.304Z,56.82999801635742,12,986.2163696289062,-1822,742,3773,-1502,-403,218,,,,-0.132384911,0.14794884622097015,0.7799662351608276,0.5934432744979858,25,500,17477
2026-03-06T22:28:32.264Z,56.82999801635742,12,986.2163696289062,-3578,-926,1557,491,1244,436,,,,-0.24462828,0.090698011,0.8583351969718933,0.44164925813674927,25,500,17575
2026-03-06T22:28:32.224Z,56.63999938964844,12,986.2319946289062,-4069,-1600,2448,1924,-1710,125,,,,-0.261351883,0.043029673397541046,0.8681008219718933,0.41973769664764404,25,500,17519
2026-03-06T22:28:32.184Z,56.63999938964844,12,986.2319946289062,-2035,-769,3316,668,1322,138,,,,-0.212890074,0.015991169959306717,0.8833595514297485,0.41717422008514404,25,500,17395
2026-03-06T22:28:32.144Z,56.529998779296875,12,986.1929931640625,-494,-1382,3817,-240,1626,313,,,,-0.124938644,-0.01440426,0.8703591227531433,0.4759509265422821,25,500,17354
2026-03-06T22:28:32.104Z,56.47999954223633,12,986.1773681640625,-816,-421,4067,-422,391,606,,,,-0.108337127,0.002014155,0.8617531657218933,0.49548211693763733,25,500,17519
2026-03-06T22:28:32.064Z,56.459999084472656,12,986.2163696289062,666,-1297,4934,-633,345,582,,,,-0.077148236,-0.008605935,0.8533303141593933,0.5154405832290649,25,500,17327
2026-03-06T22:28:32.024Z,56.529998779296875,12,986.2163696289062,1729,-1697,5031,-44,694,632,,,,0.068420231,-0.00256347,0.8598610758781433,0.5057970285415649,25,500,17422
2026-03-06T22:28:31.984Z,56.529998779296875,12,986.1929931640625,-594,5237,7258,-2243,-2353,1379,,,,0.012206999585032463,0.10620089620351791,0.8522927165031433,0.5119005441665649,25,500,17286
2026-03-06T22:28:31.944Z,56.46999740600586,13,986.1773681640625,-2207,-314,1908,-200,-4329,1910,,,,-0.094604246,0.10436984896659851,0.8532082438468933,0.5021349191665649,25,500,17340
2026-03-06T22:28:31.904Z,56.36000061035156,13,986.1773681640625,-271,29,4135,1510,297,22,,,,-0.036621001,0.00329589,0.9038062691688538,0.42626842856407166,25,500,17381
2026-03-06T22:28:31.864Z,56.279998779296875,13,986.1539916992188,158,-423,4223,123,71,-604,,,,-0.01379391,-0.043456919,0.9464697241783142,0.31933513283729553,25,500,17246
2026-03-06T22:28:31.824Z,56.23999786376953,13,986.1773681640625,292,-300,4053,-31,224,-171,,,,-0.009094215,-0.041992079,0.9502539038658142,0.30834880471229553,25,500,17381
2026-03-06T22:28:31.784Z,56.279998779296875,13,986.1929931640625,231,-333,4052,-131,-37,-90,,,,-0.009216285,-0.038879294,0.9533056616783142,0.2992545962333679,25,500,17381
2026-03-06T22:28:31.744Z,56.31999969482422,13,986.1929931640625,404,-685,3703,-5,83,-109,,,,-0.00708006,-0.036437895,0.9563574194908142,0.2896721065044403,25,500,17408
2026-03-06T22:28:31.704Z,56.28999710083008,13,986.1929931640625,613,-99,4307,-466,-94,-306,,,,0.006164535,-0.010559055,0.9675267934799194,0.25219660997390747,25,500,17617
2026-03-06T22:28:31.664Z,56.189998626708984,13,986.1773681640625,188,308,4571,-260,-225,-174,,,,-0.01293942,0.020324655,0.9811986684799194,0.1911616176366806,25,500,17436
2026-03-06T22:28:31.624Z,56.22999954223633,13,986.2163696289062,-222,-220,3898,-97,-434,-612,,,,-0.034362704,0.023254334926605225,0.9863866567611694,0.15893514454364777,25,500,17547
2026-03-06T22:28:31.584Z,56.15999984741211,13,986.2319946289062,-1297,1324,3619,3,-805,-585,,,,-0.051757678,0.035644438,0.9884617924690247,0.13745081424713135,25,500,17561
2026-03-06T22:28:31.544Z,56.03999710083008,13,986.2319946289062,-199,678,4037,-131,-262,-185,,,,-0.035827544,0.04077138,0.9912083745002747,0.12048309296369553,25,500,17533
2026-03-06T22:28:31.504Z,56.02000045776367,13,986.2319946289062,1607,406,3895,-189,966,373,,,,-0.00402831,0.014221155,0.9954808354377747,0.093627691,25,500,17645
2026-03-06T22:28:31.464Z,56.02000045776367,13,986.1773681640625,-2793,-348,3277,-81,-334,712,,,,-0.128539711,-0.007019025,0.9894383549690247,0.065734692,25,500,17744
2026-03-06T22:28:31.424Z,55.78999710083008,13,986.1929931640625,-1474,-1714,3224,1768,-1533,352,,,,-0.118957214,-0.05383287,0.9899876713752747,0.053222518,25,500,17858
2026-03-06T22:28:31.384Z,55.78999710083008,13,986.1773681640625,-172,-691,4464,232,1055,705,,,,-0.085876241,-0.04809558,0.9938939213752747,0.049072139,25,500,17931
2026-03-06T22:28:31.344Z,55.71999740600586,13,986.1773681640625,-190,-664,4491,-337,329,605,,,,-0.077758588,-0.040099993,0.9953587651252747,0.039672751,25,500,17989
2026-03-06T22:28:31.304Z,55.57999801635742,13,986.1539916992188,-615,-403,3675,-430,279,562,,,,0.13159145414829254,0.013732874765992165,-0.991147339,0.0024414,25,500,18302
2026-03-06T22:28:31.264Z,55.43000030517578,14,986.1929931640625,-2199,270,4146,-462,-1645,-137,,,,0.1846919059753418,-0.00073242,-0.981992126,0.038391016,25,500,18409
2026-03-06T22:28:31.224Z,55.349998474121094,14,986.1929931640625,-1639,561,3854,-941,-1645,-329,,,,0.16680864989757538,-0.022643985,-0.982785583,0.0756834,25,500,18752
2026-03-06T22:28:31.184Z,55.279998779296875,14,986.1539916992188,-1259,861,3852,-137,790,167,,,,0.14404259622097015,-0.02636712,-0.985043883,0.090453871,25,500,18641
2026-03-06T22:28:31.144Z,55.16999816894531,14,986.1539916992188,-929,930,3894,-292,603,190,,,,0.13623012602329254,-0.026061945,-0.984860778,0.10375949740409851,25,500,18486
2026-03-06T22:28:31.104Z,55.04999923706055,14,986.1383666992188,-881,536,3749,220,-245,139,,,,0.13433803617954254,-0.011535615,-0.983762145,0.11822479218244553,25,500,18579
2026-03-06T22:28:31.064Z,54.96999740600586,14,986.1149902,212,-157,4208,401,569,-154,,,,0.10900851339101791,0.022216739133000374,-0.981747985,0.15386924147605896,25,500,18470
2026-03-06T22:28:31.024Z,54.90999984741211,14,986.1383666992188,-3484,-287,2722,-57,-445,-257,,,,0.18231155,0.066345043,-0.958432615,0.20904487371444702,25,500,18439
2026-03-06T22:28:30.984Z,54.78999710083008,14,986.1383666992188,-2369,-758,3314,1634,-274,-1342,,,,0.14923056960105896,0.093993902,-0.947507322,0.2664788067340851,25,500,18439
2026-03-06T22:28:30.944Z,54.50999832,14,986.1383666992188,-506,-529,4025,709,1225,-1735,,,,0.029540939,0.10662814229726791,-0.893552423,0.43505749106407166,25,500,18532
2026-03-06T22:28:30.904Z,54.32999801635742,14,986.1383666992188,-304,-762,3964,798,581,-1451,,,,0.007263165,0.11852996796369553,-0.872617364,0.4736926257610321,25,500,18486
2026-03-06T22:28:30.864Z,54.23999786376953,14,986.1773681640625,-379,-1416,3919,591,273,-1112,,,,0.00378417,0.13098110258579254,-0.853696525,0.5039049386978149,25,500,18579
2026-03-06T22:28:30.824Z,53.94999694824219,14,986.1929931640625,-574,-854,4214,-372,-597,-1096,,,,0.034362704,0.11413545161485672,-0.828916311,0.5464463829994202,25,500,18501
2026-03-06T22:28:30.784Z,53.94999694824219,14,986.2163696289062,-775,-585,3808,3,-113,-1021,,,,0.071716122,0.11822479218244553,-0.802793324,0.5799545645713806,25,500,18626
2026-03-06T22:28:30.744Z,53.97999954223633,14,986.1773681640625,-1478,-384,3837,59,-616,-1504,,,,0.095580809,0.13244594633579254,-0.76251024,0.6259139180183411,25,500,18579
2026-03-06T22:28:30.704Z,53.89999771118164,14,986.1929931640625,-1706,-362,4282,433,-172,-2292,,,,0.095336668,0.13409389555454254,-0.729917586,0.6633893847465515,25,500,18641
2026-03-06T22:28:30.664Z,54.00999832,15,986.1773681640625,-998,1940,3910,54,210,-3169,,,,0.11791961640119553,0.11236543208360672,-0.640867472,0.7501201629638672,25,500,18563
2026-03-06T22:28:30.624Z,53.93000030517578,15,986.1773681640625,-419,1266,3925,-34,203,-2907,,,,0.089904554,0.096496336,-0.525084078,0.8407571315765381,25,500,18563
2026-03-06T22:28:30.584Z,53.77000045776367,15,986.1773681640625,-1827,-1865,2625,1153,660,-2925,,,,-0.03332511,0.20751899480819702,-0.337157339,0.9176612496376038,25,500,18610
2026-03-06T22:28:30.544Z,53.62999725341797,15,986.1383666992188,-1510,-1547,3659,820,265,-342,,,,-0.036804106,0.2002558410167694,-0.351927817,0.9135718941688538,25,500,18784
2026-03-06T22:28:30.504Z,53.529998779296875,15,986.0993652,-836,222,4855,-209,733,-296,,,,-0.001770015,0.16192585229873657,-0.38238427,0.9096656441688538,25,500,18864
2026-03-06T22:28:30.464Z,53.40999984741211,15,986.1383666992188,790,-446,4860,455,558,-723,,,,0.046874881,0.16412311792373657,-0.416808009,0.8927589654922485,25,500,18929
2026-03-06T22:28:30.424Z,53.279998779296875,15,986.1149902,-1282,936,1784,1220,762,-527,,,,0.085265897,0.2748405933380127,-0.42486462,0.8582741618156433,25,500,19010
2026-03-06T22:28:30.384Z,53.03999710083008,15,986.1383666992188,-4901,-3059,836,2833,-3150,727,,,,0.040099993,0.33312901854515076,-0.437681973,0.8341042995452881,25,500,18978
2026-03-06T22:28:30.344Z,52.959999084472656,15,986.1383666992188,-1983,-1647,4098,774,778,1068,,,,0.00439452,0.20349068939685822,-0.483946502,0.8510109782218933,25,500,19043
2026-03-06T22:28:30.304Z,52.939998626708984,15,986.1149902,-691,-428,4199,-833,1659,-14,,,,0.00781248,0.15978963673114777,-0.487730682,0.8581520915031433,25,500,19175
2026-03-06T22:28:30.264Z,52.82999801635742,15,986.0525512695312,-1080,-553,3383,-237,432,163,,,,0.022399844601750374,0.16400104761123657,-0.494322449,0.8533303141593933,25,500,19109
2026-03-06T22:28:30.224Z,52.78999710083008,15,986.0759887695312,-2099,-272,3851,-253,-704,211,,,,0.042175184935331345,0.17712357640266418,-0.5003649,0.8463723659515381,25,500,19158
2026-03-06T22:28:30.184Z,52.63999938964844,15,986.0993652,-2782,-957,3576,-213,-578,269,,,,0.047912475,0.1913447231054306,-0.509886384,0.8372781276702881,25,500,19394
2026-03-06T22:28:30.144Z,52.55999755859375,16,986.0759887695312,-1243,-274,4069,421,-190,366,,,,0.02978508,0.16528278589248657,-0.500670075,0.8491188883781433,25,500,19479
2026-03-06T22:28:30.104Z,52.41999816894531,16,986.0759887695312,-1330,-575,3834,29,-17,-9,,,,0.030273359268903732,0.16558796167373657,-0.500731111,0.8490578532218933,25,500,19617
2026-03-06T22:28:30.064Z,52.28999710083008,16,986.1149902,-1415,-460,3840,-101,-10,12,,,,0.033813390880823135,0.16375690698623657,-0.501341462,0.8488747477531433,25,500,19722
2026-03-06T22:28:30.024Z,52.209999084472656,16,986.0759887695312,-1149,-444,3908,-164,34,41,,,,0.033996496349573135,0.15899617969989777,-0.500975251,0.8499733805656433,25,500,19479
2026-03-06T22:28:29.984Z,52.119998931884766,16,986.0993652,-683,-345,3951,-8,38,69,,,,0.036926176,0.14788781106472015,-0.502318025,0.8510720133781433,25,500,19846
2026-03-06T22:28:29.944Z,52.00999832,16,986.0993652,-1041,-472,4051,265,-14,-240,,,,0.034606844,0.14636193215847015,-0.495299011,0.8555275797843933,25,500,19740
2026-03-06T22:28:29.904Z,51.87999725341797,16,986.0993652,-1128,-316,3992,-146,29,-463,,,,0.039855856,0.14361535012722015,-0.489622772,0.8590676188468933,25,500,19740
2026-03-06T22:28:29.864Z,51.81999969482422,16,986.0993652,-1206,-313,3905,8,-45,-44,,,,0.039855856,0.14849814772605896,-0.486387908,0.8600441813468933,25,500,19740
2026-03-06T22:28:29.824Z,51.55999755859375,16,986.0525512695312,-1192,-462,3792,201,-75,-143,,,,0.035888579,0.15283164381980896,-0.480345458,0.8628517985343933,25,500,20026
2026-03-06T22:28:29.784Z,51.439998626708984,16,986.0759887695312,-1205,-295,3956,-7,-80,-206,,,,0.038879294,0.14715538918972015,-0.478819579,0.8645607829093933,25,500,20154
2026-03-06T22:28:29.744Z,51.28999710083008,16,986.1149902,-1220,-302,3930,28,-22,-52,,,,0.038635153,0.14752160012722015,-0.477232665,0.8654152750968933,25,500,20191
2026-03-06T22:28:29.704Z,51.13999938964844,16,986.0759887695312,-1192,-321,3917,14,11,-47,,,,0.038085841,0.14746056497097015,-0.475218505,0.8665139079093933,25,500,20209
2026-03-06T22:28:29.664Z,51.07999801635742,16,986.0993652,-1195,-306,3922,15,-2,-47,,,,0.03771963,0.14770470559597015,-0.471861571,0.8683449625968933,25,500,20044
2026-03-06T22:28:29.624Z,51.05999755859375,16,986.0993652,-1214,-281,3946,9,-17,-56,,,,0.038574118,0.14788781106472015,-0.470824003,0.8688332438468933,25,500,20062
2026-03-06T22:28:29.584Z,50.90999984741211,16,986.1773681640625,-1217,-214,3946,-17,-14,-56,,,,0.04064931,0.14880332350730896,-0.466429472,0.8709694743156433,25,500,20062
2026-03-06T22:28:29.544Z,50.82999801635742,17,986.1773681640625,-1216,-273,3917,23,-14,-20,,,,0.040588275,0.14935263991355896,-0.468016386,0.8699929118156433,25,500,20191
2026-03-06T22:28:29.504Z,50.689998626708984,17,986.1773681640625,-1197,-283,3944,-18,-4,-10,,,,0.041503798216581345,0.14916953444480896,-0.472716063,0.8674294352531433,25,500,20209
2026-03-06T22:28:29.464Z,50.57999801635742,17,986.1773681640625,-1199,-229,3909,38,-13,29,,,,0.042785536497831345,0.15020713210105896,-0.473082274,0.8670021891593933,25,500,20358
2026-03-06T22:28:29.424Z,50.45000076293945,17,986.1149902,-1186,-435,3849,-89,-65,-34,,,,0.038696188,0.15856893360614777,-0.465391874,0.8698708415031433,25,500,20566
2026-03-06T22:28:29.384Z,50.349998474121094,17,986.1383666992188,-768,159,4196,242,22,-240,,,,0.041686903685331345,0.14764367043972015,-0.448668271,0.8803688287734985,25,500,20452
2026-03-06T22:28:29.344Z,50.21999740600586,17,986.1539916992188,-1137,87,3968,-336,233,-473,,,,0.060180511,0.15582235157489777,-0.442564785,0.8809791803359985,25,500,20452
2026-03-06T22:28:29.304Z,50.20000076293945,17,986.1929931640625,-1749,170,3572,5,-235,-139,,,,0.073913388,0.16723589599132538,-0.453184873,0.8723732233047485,25,500,20779
2026-03-06T22:28:29.264Z,50.04999923706055,17,986.1539916992188,-1413,91,3806,-513,-6,156,,,,0.080749303,0.16039997339248657,-0.461973906,0.8684670329093933,25,500,21056
2026-03-06T22:28:29.224Z,49.95000076293945,18,986.1539916992188,-1266,91,3917,-134,75,22,,,,0.082153112,0.16088825464248657,-0.466612577,0.8657814860343933,25,500,21036
2026-03-06T22:28:29.184Z,49.95000076293945,18,986.1773681640625,-1381,71,3936,170,-150,-122,,,,0.082031041,0.17370560765266418,-0.462218046,0.8656594157218933,25,500,21465
2026-03-06T22:28:29.144Z,49.65999984741211,18,986.1539916992188,-1023,437,3584,182,-558,-279,,,,0.092956305,0.21667425334453583,-0.459166318,0.8564431071281433,25,500,21361
2026-03-06T22:28:29.104Z,49.599998474121094,18,986.1149902,-1177,749,1477,217,-1414,156,,,,0.10534641146659851,0.355223686,-0.470457792,0.8008402585983276,25,500,21341
2026-03-06T22:28:29.064Z,49.439998626708984,18,986.0993652,-6862,-3283,2014,2298,-3511,225,,,,0.085387968,0.4661242961883545,-0.450804502,0.7564067244529724,25,500,21549
2026-03-06T22:28:29.024Z,49.31999969482422,18,986.0993652,-1967,-1478,2635,1044,772,1412,,,,0.009704565,0.358763725,-0.531431735,0.7672709822654724,25,500,21591
2026-03-06T22:28:28.984Z,49.31999969482422,18,986.0525512695312,-2635,-1668,2757,-168,609,-135,,,,0.00817869,0.33941563963890076,-0.535154879,0.7734355330467224,25,500,21718
2026-03-06T22:28:28.944Z,49.15999984741211,19,986.1149902,-1764,-1023,3561,-481,1138,-135,,,,0.00585936,0.3016960024833679,-0.54345566,0.7832621335983276,25,500,21868
2026-03-06T22:28:28.904Z,48.91999816894531,19,986.1149902,-1601,-1433,3480,-313,991,-130,,,,0.002746575,0.2742302417755127,-0.543577731,0.7932108640670776,25,500,21933
2026-03-06T22:28:28.864Z,48.63999938964844,19,986.0993652,-1160,-1176,3719,-663,448,-273,,,,0.014343225,0.22589053213596344,-0.539610445,0.8108499646186829,25,500,21868
2026-03-06T22:28:28.824Z,48.63999938964844,19,986.1149902,-797,-463,3553,-755,283,-338,,,,0.045898318,0.1980585753917694,-0.53173691,0.8220804333686829,25,500,22265
2026-03-06T22:28:28.784Z,48.40999984741211,19,986.0993652,-2026,-457,3547,-318,-478,-468,,,,0.065734692,0.20489449799060822,-0.520445466,0.8262917995452881,25,500,22560
2026-03-06T22:28:28.744Z,48.27000045776367,19,986.1773681640625,-1695,-809,4283,-343,265,-576,,,,0.072814755,0.1940913051366806,-0.505064607,0.8377664089202881,25,500,22746
2026-03-06T22:28:28.704Z,47.939998626708984,19,986.1383666992188,-1200,399,3930,-380,-1,-271,,,,0.083862089,0.13098110258579254,-0.510862947,0.8453958034515381,25,500,22840
2026-03-06T22:28:28.664Z,47.80999755859375,19,986.1539916992188,-667,299,4062,-197,509,100,,,,0.074828908,0.12219206988811493,-0.52593857,0.8383157253265381,25,500,23006
2026-03-06T22:28:28.624Z,47.68000030517578,20,986.1383666992188,-410,653,3961,-19,-194,706,,,,0.077453412,0.13146938383579254,-0.544188082,0.8249490857124329,25,500,24347
2026-03-06T22:28:28.584Z,47.50999832,20,986.0759887695312,-1221,-79,3647,188,-858,1056,,,,0.076232716,0.16589312255382538,-0.57031101,0.8008402585983276,25,500,24373
2026-03-06T22:28:28.544Z,47.40999984741211,20,986.0993652,-1510,453,4479,256,-299,938,,,,0.071960263,0.17437699437141418,-0.577940404,0.7939432859420776,25,500,24267
2026-03-06T22:28:28.504Z,47.40999984741211,20,986.0993652,-1566,-856,3533,151,-312,520,,,,0.033630285412073135,0.17584183812141418,-0.583250463,0.7922343015670776,25,500,24454
2026-03-06T22:28:28.464Z,47.00999832,20,986.1149902,-1385,-684,3785,-169,287,304,,,,0.030883710831403732,0.16534382104873657,-0.583311498,0.7945536375045776,25,500,24508
2026-03-06T22:28:28.424Z,46.82999801635742,20,986.1149902,-1195,-655,3851,-175,253,119,,,,0.029357836,0.15643270313739777,-0.57812351,0.8002299070358276,25,500,24755
2026-03-06T22:28:28.384Z,46.459999084472656,20,986.1149902,-1732,-384,3879,-240,178,-30,,,,0.079772748,0.1844477653503418,-0.509520173,0.8366067409515381,25,500,24811
2026-03-06T22:28:28.344Z,46.279998779296875,21,986.1383666992188,-1719,-178,4602,-38,-204,-14,,,,0.089416273,0.1907954066991806,-0.502562165,0.8384377956390381,25,500,24880
2026-03-06T22:28:28.304Z,46.029998779296875,21,986.0993652,-2913,-279,3091,-544,-501,148,,,,0.11090059578418732,0.20477242767810822,-0.50250113,0.8325784206390381,25,500,25049
2026-03-06T22:28:28.264Z,45.87999725341797,21,986.1383666992188,-2238,630,3427,-674,-458,641,,,,0.12860074639320374,0.1926264613866806,-0.504881501,0.8314797878265381,25,500,25336
2026-03-06T22:28:28.224Z,45.80999755859375,21,986.1383666992188,-1933,428,3607,-994,264,271,,,,0.13037076592445374,0.179198757,-0.502867341,0.8353860378265381,25,500,25351
2026-03-06T22:28:28.184Z,45.64999771118164,22,986.1539916992188,-1149,443,3996,-81,403,348,,,,0.11657685041427612,0.17486527562141418,-0.486815155,0.8477761745452881,25,500,25264
2026-03-06T22:28:28.144Z,45.529998779296875,22,986.1383666992188,-1697,387,3750,128,-493,291,,,,0.11132784187793732,0.1972651183605194,-0.47918579,0.8478982448577881,25,500,25600
2026-03-06T22:28:28.104Z,45.41999816894531,22,986.1383666992188,-1494,-90,3841,573,-501,490,,,,0.096496336,0.21398870646953583,-0.473936766,0.8486306667327881,25,500,25497
2026-03-06T22:28:28.064Z,45.25999832,22,986.1149902,-1764,683,4008,140,-85,144,,,,0.091247328,0.22405947744846344,-0.456602842,0.8560768961906433,25,500,25615
2026-03-06T22:28:28.024Z,45.07999801635742,23,986.0993652,-2028,-833,3468,755,-737,15,,,,0.046569705,0.25537043809890747,-0.427367061,0.8659645915031433,25,500,25453
2026-03-06T22:28:27.984Z,44.89999771118164,23,986.0993652,-2019,-586,3737,646,287,-223,,,,0.015197714790701866,0.23315370082855225,-0.388426751,0.8912941217422485,25,500,25556
2026-03-06T22:28:27.944Z,44.73999786376953,23,986.0993652,-1294,-271,4012,230,866,-1031,,,,-0.000793455,0.21221868693828583,-0.287657946,0.933896542,25,500,25839
2026-03-06T22:28:27.904Z,44.57999801635742,23,986.0993652,-1020,-482,3852,685,56,-1826,,,,-0.010681125,0.21948185563087463,-0.21917668,0.9505590796470642,25,500,26191
2026-03-06T22:28:27.864Z,44.36000061035156,23,986.0993652,-1434,-108,3507,637,-504,-2062,,,,-0.007873515,0.23760925233364105,-0.148864359,0.9597753882408142,25,,
2026-03-06T22:28:27.824Z,43.90999984741211,24,986.0525512695312,-2375,-1328,3847,256,-232,-2201,,,,-0.017028766,0.24816830456256866,-0.01501461,0.9684423208236694,25,,
2026-03-06T22:28:27.784Z,43.62999725341797,24,986.0993652,-2263,1542,3285,-848,-43,-1117,,,,0.030273359268903732,0.23626647889614105,0.051208365708589554,0.9698461294174194,25,,
2026-03-06T22:28:27.744Z,43.459999084472656,24,986.0993652,-1632,749,3614,551,319,-941,,,,-0.006042465,0.21807804703712463,0.17419388890266418,0.9602026343345642,25,,
2026-03-06T22:28:27.704Z,43.29999923706055,24,986.0525512695312,-1742,994,3835,642,-59,-1210,,,,-0.016052205,0.21856632828712463,0.20410104095935822,0.9540380835533142,25,,
2026-03-06T22:28:27.664Z,43.15999984741211,,986.0369873046875,-1237,611,3699,944,-146,-1009,,,,-0.044555549,0.21508733928203583,0.24829037487506866,0.9434179663658142,,,
2026-03-06T22:28:27.624Z,42.93000030517578,,986.0369873046875,-2180,662,4065,1130,-570,-924,,,,-0.126525551,0.21801702678203583,0.3916615843772888,0.8848243951797485,,,
2026-03-06T22:28:27.584Z,42.72999954223633,,,-2272,-745,3154,1204,35,-461,,,,-0.186645031,0.1864008903503418,0.4738757312297821,0.8400857448577881,,,
2026-03-06T22:28:27.544Z,42.50999832,,,-2075,-439,3424,429,188,-575,,,,-0.193603024,0.17498734593391418,0.5175768136978149,0.8148172497749329,,,
2026-03-06T22:28:27.504Z,42.279998779296875,,,-2043,76,3720,305,233,-746,,,,-0.25207454,0.096313231,0.8996558785438538,0.34307771921157837,,,
2026-03-06T22:28:27.464Z,41.869998931884766,,,-2448,1152,3418,287,285,-1469,,,,-0.251036942,0.070983708,0.9520239233970642,0.15948446094989777,,,
2026-03-06T22:28:27.424Z,41.869998931884766,,,-2022,822,3522,-351,-110,-1201,,,,0.25170832872390747,-0.047363158,-0.966611266,0.00622557,,,
2026-03-06T22:28:27.384Z,41.709999084472656,,,-1959,1106,3696,656,-62,-1144,,,,0.25317317247390747,-0.020568796,-0.962033689,0.099426016,,,
2026-03-06T22:28:27.344Z,,,,-1328,239,3735,1008,-63,-1005,,,,0.23327577114105225,0.05664048,-0.932004452,0.2714226543903351,,,
2026-03-06T22:28:27.304Z,,,,-2129,-254,3540,788,-235,-766,,,,0.21911564469337463,0.13256801664829254,-0.868894279,0.42346084117889404,,,
2026-03-06T22:28:27.264Z,,,,-1994,188,4548,740,14,-530,,,,0.20214791595935822,0.15692098438739777,-0.834409475,0.4880358576774597,,,
2026-03-06T22:28:27.224Z,,,,-2407,-795,3146,824,146,-864,,,,0.16381794214248657,0.20843452215194702,-0.757017076,0.5971053838729858,,,
2026-03-06T22:28:27.184Z,,,,-2140,-363,3329,881,383,-1114,,,,0.13800013065338135,0.22039738297462463,-0.709714949,0.6546614170074463,,,
2026-03-06T22:28:27.144Z,,,,-2248,-763,3285,1051,242,-1082,,,,0.10247776657342911,0.24023376405239105,-0.671446025,0.6934186220169067,,,
2026-03-06T22:28:27.104Z,,,,-544,-826,4023,1164,646,-1265,,,,0.004821765,0.17144732177257538,-0.582212865,0.7946757078170776,,,
2026-03-06T22:28:27.064Z,,,,-1114,-906,4145,116,-310,-188,,,,0.00158691,0.181579128,-0.547667027,0.8166483044624329,,,
2026-03-06T22:28:27.024Z,,,,-975,-781,3742,200,-248,-328,,,,0.00500487,0.1928706020116806,-0.538511813,0.8201883435249329,,,
2026-03-06T22:28:26.984Z,,,,-1362,-608,3699,42,-698,-395,,,,0.016662554815411568,0.21197456121444702,-0.524168551,0.8245828747749329,,,
2026-03-06T22:28:26.944Z,,,,-1526,-1054,3188,218,-840,-230,,,,0.024413999170064926,0.23486268520355225,-0.515440583,0.8236673474311829,,,
2026-03-06T22:28:26.904Z,,,,-1331,-988,3690,44,-871,-243,,,,0.046569705,0.25207453966140747,-0.511656404,0.8200052380561829,,,
2026-03-06T22:28:26.864Z,,,,-1845,-795,3574,-62,-92,-3,,,,0.03942861,0.25622493028640747,-0.475584716,0.8405129909515381,,,
2026-03-06T22:28:26.824Z,,,,-1829,-754,3587,-31,-3,37,,,,0.035461336,0.25640803575515747,-0.460203886,0.8491799235343933,,,
2026-03-06T22:28:26.784Z,,,,-1822,-811,3620,-51,3,56,,,,0.028381275,0.25714045763015747,-0.434874386,0.8624855875968933,,,
2026-03-06T22:28:26.744Z,,,,-1966,-725,3619,-53,-19,66,,,,0.024475034326314926,0.25610285997390747,-0.39990133,0.8796364068984985,,,
2026-03-06T22:28:26.704Z,,,,-1684,-667,3796,-126,49,28,,,,0.016906695440411568,0.25109797716140747,-0.327513814,0.9106422066688538,,,
2026-03-06T22:28:26.664Z,,,,-2368,-281,3445,171,54,-412,,,,0.001403805,0.25494319200515747,-0.218261153,0.9419531226158142,,,
2026-03-06T22:28:26.624Z,,,,-1481,24,3842,-195,443,-731,,,,0.004821765,0.20892280340194702,-0.122375175,0.9702123403549194,,,
2026-03-06T22:28:26.584Z,,,,-1495,-179,3929,-615,241,-514,,,,0.008605935,0.1985468566417694,-0.082397252,0.9765599966049194,,,
2026-03-06T22:28:26.544Z,,,,-1185,57,3905,-158,371,-118,,,,0.013671839609742165,0.180968776,-0.0146484,0.9832738637924194,,,
2026-03-06T22:28:26.504Z,,,,-1813,637,3774,-74,225,-187,,,,0.028625416,0.1895747035741806,0.01757808,0.9812597036361694,,,
2026-03-06T22:28:26.464Z,,,,-1714,721,3595,-686,-319,60,,,,0.038024805,0.1918940395116806,0.025146419182419777,0.9803441762924194,,,
2026-03-06T22:28:26.424Z,,,,-1363,424,3822,-115,49,168,,,,0.025878839194774628,0.1854853630065918,0.038024805,0.9815038442611694,,,
2026-03-06T22:28:26.384Z,,,,-1071,238,3925,341,307,213,,,,0.010070775,0.17120318114757538,0.051269400864839554,0.9838231801986694,,,
2026-03-06T22:28:26.344Z,,,,-480,391,4237,497,739,67,,,,-0.01037595,0.13049283623695374,0.10046360641717911,0.9862645864486694,,,
2026-03-06T22:28:26.304Z,,,,-3112,220,3390,40,100,74,,,,-0.052673206,0.1855463981628418,0.1887202262878418,0.9628271460533142,,,
2026-03-06T22:28:26.264Z,,,,-2056,-1112,3464,1224,475,-428,,,,-0.094665281,0.13830530643463135,0.26080256700515747,0.9506811499595642,,,
2026-03-06T22:28:26.224Z,,,,-563,237,4270,-255,1486,-156,,,,-0.073608212,0.10070774704217911,0.2943718135356903,0.9474462866783142,,,
2026-03-06T22:28:26.184Z,,,,-836,-588,4380,61,760,-192,,,,-0.068481266,0.079467572,0.33080971240997314,0.937802792,,,
2026-03-06T22:28:26.144Z,,,,-376,-415,4179,-205,522,-481,,,,-0.060241546,0.068542302,0.3748769760131836,0.922544003,,,
2026-03-06T22:28:26.104Z,,,,227,-416,4024,-124,149,-554,,,,-0.058471531,0.071533017,0.42803844809532166,0.8989844918251038,,,
2026-03-06T22:28:26.064Z,,,,-1656,28,4161,-166,-989,-942,,,,-0.069396794,0.14678917825222015,0.5686020851135254,0.8063943982124329,,,
2026-03-06T22:28:26.024Z,,,,-1869,527,3769,-582,-273,28,,,,-0.069885075,0.16748003661632538,0.5897812247276306,0.7868021726608276,,,
2026-03-06T22:28:25.984Z,,,,-1121,618,3839,-636,-372,151,,,,-0.076965138,0.14208948612213135,0.6853620409965515,0.70995909,,,
2026-03-06T22:28:25.944Z,,,,-1118,240,3793,510,429,-96,,,,-0.085204862,0.12628141045570374,0.7062360048294067,0.6912823915481567,,,
2026-03-06T22:28:25.904Z,,,,-1074,239,3937,577,295,-188,,,,-0.092101812,0.096008055,0.7549419403076172,0.6420271396636963,,,
2026-03-06T22:28:25.864Z,,,,-795,873,5038,314,590,-26,,,,-0.101501204,0.064697102,0.8450295925140381,0.5208727121353149,,,
2026-03-06T22:28:25.824Z,,,,-1841,-818,2952,532,-661,-384,,,,-0.13006559,0.033447179943323135,0.8709694743156433,0.4725329577922821,,,
2026-03-06T22:28:25.784Z,,,,-862,-724,4021,1122,513,-247,,,,-0.092468023,-0.00439452,0.9017921090126038,0.42199599742889404,,,
2026-03-06T22:28:25.744Z,,,,207,-809,4073,-181,624,104,,,,-0.061828453,-0.01440426,0.9122901558876038,0.40453997254371643,,,
2026-03-06T22:28:25.704Z,,,,343,-1267,3886,314,921,97,,,,-0.042785536,-0.021179145,0.929685116,0.365111381,,,
2026-03-06T22:28:25.664Z,,,,-664,-946,4816,-426,257,-845,,,,-0.031494059,0.015319785103201866,0.9573339819908142,0.2866813838481903,,,
2026-03-06T22:28:25.624Z,,,,229,1541,3885,-785,-644,-451,,,,0.078307904,0.06970197,0.9444555640220642,0.31133952736854553,,,
2026-03-06T22:28:25.584Z,,,,558,1293,3993,-539,1781,1529,,,,0.14062464237213135,0.052917346358299255,0.9097266793251038,0.3869008719921112,,,
2026-03-06T22:28:25.544Z,,,,-1275,3310,5326,130,989,1907,,,,0.000427245,0.11779754608869553,0.9009986519813538,0.41741836071014404,,,
2026-03-06T22:28:25.504Z,,,,-1284,-965,2761,1734,-3504,269,,,,-0.09008766,0.027038505,0.932858944,0.34759432077407837,,,
2026-03-06T22:28:25.464Z,,,,-778,-130,3862,710,848,-757,,,,-0.062011559,0.011413545347750187,0.9481787085533142,0.31127849221229553,,,
2026-03-06T22:28:25.424Z,,,,-794,123,4014,157,893,-1028,,,,-0.018676709,-0.004211415,0.9690526723861694,0.24591001868247986,,,
2026-03-06T22:28:25.384Z,,,,732,38,4262,-20,1381,11,,,,0.021911565214395523,-0.014831505,0.9691137075424194,0.24499449133872986,,,
2026-03-06T22:28:25.344Z,,,,-100,-376,4130,275,625,-57,,,,0.00891111,-0.032531656,0.9768041372299194,0.21130317449569702,,,
2026-03-06T22:28:25.304Z,,,,-19,19,3791,-12,-322,-457,,,,0.010314915,-0.033508215,0.9789403676986694,0.20098824799060822,,,
2026-03-06T22:28:25.264Z,,,,174,-123,4071,207,514,179,,,,0.019836375,-0.01562496,0.9753392934799194,0.21911564469337463,,,
2026-03-06T22:28:25.224Z,,,,-91,63,4106,-361,-167,58,,,,0.016174275428056717,-0.00341796,0.9755223989486694,0.21911564469337463,,,
2026-03-06T22:28:25.184Z,,,,941,24,4279,-197,-29,190,,,,0.04077138,0.011047335341572762,0.9738134145736694,0.22308292984962463,,,
2026-03-06T22:28:25.144Z,,,,379,62,4058,-499,-70,-280,,,,0.040832415,0.023193299770355225,0.9766210317611694,0.20947211980819702,,,
2026-03-06T22:28:25.104Z,,,,-131,1205,4483,-290,-131,-202,,,,0.039550681,0.042358290404081345,0.9835180044174194,0.17114214599132538,,,
2026-03-06T22:28:25.064Z,,,,517,619,3382,-10,-269,-55,,,,0.043273814022541046,0.03930654,0.9854711294174194,0.15905721485614777,,,
2026-03-06T22:28:25.024Z,,,,367,97,4401,117,-57,-169,,,,0.037231348,0.033935461193323135,0.9889500737190247,0.13915979862213135,,,
2026-03-06T22:28:24.984Z,,,,-93,634,4175,51,-63,-67,,,,0.013610805,0.024413999170064926,0.9936497807502747,0.10882540792226791,,,
2026-03-06T22:28:24.944Z,,,,425,-310,3578,247,-316,326,,,,0.007141095,0.010986300185322762,0.9935887455940247,0.11193818598985672,,,
2026-03-06T22:28:24.904Z,,,,1234,-493,4499,488,171,1081,,,,0.00341796,0.008239725,0.9927952885627747,0.11938446015119553,,,
2026-03-06T22:28:24.864Z,,,,173,909,4563,-10,-908,587,,,,-0.034118567,0.016357379034161568,0.9930394291877747,0.11126680672168732,,,
2026-03-06T22:28:24.824Z,,,,-1101,-644,3348,422,-1268,272,,,,-0.076598927,-0.031677164,0.9930394291877747,0.083190702,,,
2026-03-06T22:28:24.784Z,,,,-244,-633,4329,-61,483,129,,,,-0.057372902,-0.029357836,0.9949315190315247,0.076476857,,,
2026-03-06T22:28:24.744Z,,,,-1296,-76,4236,-431,424,328,,,,0.11553925275802612,-0.02465814,-0.992673218,0.022949159145355225,,,
2026-03-06T22:28:24.704Z,,,,-2264,963,3996,-243,-1457,351,,,,0.14813195168972015,-0.036010649,-0.987851501,0.02844231,,,
2026-03-06T22:28:24.664Z,,,,-1965,691,3503,-722,-333,466,,,,0.14752160012722015,-0.039794821,-0.98748529,0.037292384,,,
2026-03-06T22:28:24.624Z,,,,-1222,630,3878,-236,412,151,,,,0.13024869561195374,-0.038452052,-0.98937732,0.051208365708589554,,,
2026-03-06T22:28:24.584Z,,,,-1049,249,4004,66,494,259,,,,0.13098110258579254,-0.01013181,-0.98937732,0.061706386506557465,,,
2026-03-06T22:28:24.544Z,,,,-1080,-53,4088,602,-905,604,,,,0.14312706887722015,0.019103955,-0.987180114,0.067382641,,,
2026-03-06T22:28:24.504Z,,,,-630,-574,4920,413,369,416,,,,0.13220180571079254,0.034973055,-0.987790465,0.073974423,,,
2026-03-06T22:28:24.464Z,,,,-1713,-973,2990,297,-509,-63,,,,0.16833452880382538,0.092895269,-0.974484801,0.11566132307052612,,,
2026-03-06T22:28:24.424Z,,,,-983,-615,4055,408,-732,-94,,,,0.15850789844989777,0.077453412,-0.971127868,0.16027790307998657,,,
2026-03-06T22:28:24.384Z,,,,-731,-438,4016,-231,217,-480,,,,0.15307578444480896,0.071533017,-0.967709899,0.1868891716003418,,,
2026-03-06T22:28:24.344Z,,,,-1059,-691,3662,202,3,-509,,,,0.15521200001239777,0.074645802,-0.961301267,0.21484319865703583,,,
2026-03-06T22:28:24.304Z,,,,-1106,170,4121,-219,-204,-572,,,,0.15673787891864777,0.043640024960041046,-0.953122556,0.25500422716140747,,,
2026-03-06T22:28:24.264Z,,,,-1048,-817,4535,-179,523,-121,,,,0.15020713210105896,0.037536524,-0.952756345,0.26110774278640747,,,
2026-03-06T22:28:24.224Z,,,,-2246,1166,4068,-983,-643,-239,,,,0.17413285374641418,0.00915525,-0.949094236,0.2620842754840851,,,
2026-03-06T22:28:24.184Z,,,,-794,730,3959,-541,367,19,,,,0.13751184940338135,0.00146484,-0.957761228,0.25244075059890747,,,
2026-03-06T22:28:24.144Z,,,,194,-341,3969,693,360,248,,,,0.11621063947677612,0.041198626,-0.964963377,0.23150575160980225,,,
2026-03-06T22:28:24.104Z,,,,-1357,402,4386,127,-870,106,,,,0.14453087747097015,0.047668334,-0.963071287,0.22186222672462463,,,
